block,trial,trialtype,trialtype_string,cuetype,cuetype_string,correct_key,key_pressed,is_resp_corr,reaction_time
1,1,0,right_cong,1,cong,num_9,num_9,1,0.40375229995697737
1,2,1,left_cong,1,cong,num_7,num_7,1,0.24614059971645474
1,3,0,right_cong,1,cong,num_9,num_9,1,0.3178993999026716
1,4,1,left_cong,1,cong,num_7,num_7,1,0.2834104001522064
1,5,0,right_cong,1,cong,num_9,num_9,1,0.23889030003920197
1,6,2,right_incg,0,incg,num_7,num_7,1,0.6297532003372908
1,7,2,right_incg,0,incg,num_7,num_7,1,0.4316162997856736
1,8,2,right_incg,0,incg,num_7,num_7,1,0.3466825997456908
1,9,3,left_incg,0,incg,num_9,num_9,1,0.3186176996678114
1,10,2,right_incg,0,incg,num_7,num_7,1,0.35309759993106127
1,11,0,right_cong,1,cong,num_9,num_9,1,0.4006676999852061
1,12,1,left_cong,1,cong,num_7,num_7,1,0.2430403004400432
1,13,0,right_cong,1,cong,num_9,num_9,1,0.24068809999153018
1,14,0,right_cong,1,cong,num_9,num_9,1,0.3171617998741567
1,15,1,left_cong,1,cong,num_7,num_7,1,0.2715019998140633
1,16,3,left_incg,0,incg,num_9,num_9,1,0.42546219984069467
1,17,3,left_incg,0,incg,num_9,num_9,1,0.37869289983063936
1,18,3,left_incg,0,incg,num_9,num_9,1,0.329165100120008
1,19,2,right_incg,0,incg,num_7,num_7,1,0.24414820037782192
1,20,2,right_incg,0,incg,num_7,num_7,1,0.37056740000844
1,21,1,left_cong,1,cong,num_7,num_7,1,0.4634412000887096
1,22,1,left_cong,1,cong,num_7,num_7,1,0.31577059999108315
1,23,0,right_cong,1,cong,num_9,num_9,1,0.37732050009071827
1,24,1,left_cong,1,cong,num_7,num_7,1,0.37214049976319075
1,25,0,right_cong,1,cong,num_9,num_9,1,0.29208190040662885
1,26,2,right_incg,0,incg,num_7,num_7,1,0.5682289996184409
1,27,2,right_incg,0,incg,num_7,num_7,1,0.303995399735868
1,28,2,right_incg,0,incg,num_7,num_7,1,0.3474875004030764
1,29,2,right_incg,0,incg,num_7,num_7,1,0.29930669954046607
1,30,2,right_incg,0,incg,num_7,num_7,1,0.3199424003250897
1,31,0,right_cong,1,cong,num_9,num_9,1,0.3554821000434458
1,32,0,right_cong,1,cong,num_9,num_9,1,0.3815243002027273
1,33,1,left_cong,1,cong,num_7,num_7,1,0.38796629989519715
1,34,1,left_cong,1,cong,num_7,num_7,1,0.2989872000180185
1,35,0,right_cong,1,cong,num_9,num_9,1,0.29646269977092743
1,36,1,left_cong,1,cong,num_7,num_7,1,0.515217199921608
1,37,1,left_cong,1,cong,num_7,num_7,1,0.4106923001818359
1,38,1,left_cong,1,cong,num_7,num_7,1,0.35640239994972944
1,39,0,right_cong,1,cong,num_9,num_9,1,0.35301469964906573
1,40,1,left_cong,1,cong,num_7,num_7,1,0.33065850008279085
1,41,2,right_incg,0,incg,num_7,num_7,1,0.6988123999908566
1,42,2,right_incg,0,incg,num_7,num_7,1,0.3731229999102652
1,43,3,left_incg,0,incg,num_9,num_9,1,0.407655100338161
1,44,3,left_incg,0,incg,num_9,num_9,1,0.3166688000783324
1,45,2,right_incg,0,incg,num_7,num_7,1,0.30571499979123473
1,46,2,right_incg,0,incg,num_7,num_7,1,0.3602922996506095
1,47,3,left_incg,0,incg,num_9,num_9,1,0.2564101000316441
1,48,3,left_incg,0,incg,num_9,num_9,1,0.3455111999064684
1,49,3,left_incg,0,incg,num_9,num_7,0,0.3384818001650274
1,50,3,left_incg,0,incg,num_9,num_9,1,0.5215017003938556
1,51,2,right_incg,0,incg,num_7,num_7,1,0.5407810998149216
1,52,2,right_incg,0,incg,num_7,num_7,1,0.5042455000802875
1,53,3,left_incg,0,incg,num_9,num_9,1,0.3665347001515329
1,54,3,left_incg,0,incg,num_9,num_9,1,0.28657960006967187
1,55,2,right_incg,0,incg,num_7,num_9,0,0.29763210006058216
1,56,2,right_incg,0,incg,num_7,num_7,1,0.4288857001811266
1,57,3,left_incg,0,incg,num_9,num_9,1,0.37184959976002574
1,58,3,left_incg,0,incg,num_9,num_9,1,0.3728688000701368
1,59,3,left_incg,0,incg,num_9,num_9,1,0.32992689963430166
1,60,2,right_incg,0,incg,num_7,num_9,0,0.30338820023462176
1,61,1,left_cong,1,cong,num_7,num_7,1,0.4294870998710394
1,62,0,right_cong,1,cong,num_9,num_9,1,0.2807597001083195
1,63,1,left_cong,1,cong,num_7,num_7,1,0.28969330014660954
1,64,0,right_cong,1,cong,num_9,num_9,1,0.2881784001365304
1,65,1,left_cong,1,cong,num_7,num_7,1,0.2885255999863148
1,66,0,right_cong,1,cong,num_9,num_9,1,0.4403126002289355
1,67,1,left_cong,1,cong,num_7,num_7,1,0.31995819974690676
1,68,1,left_cong,1,cong,num_7,num_7,1,0.4555272003635764
1,69,0,right_cong,1,cong,num_9,num_9,1,0.3063464001752436
1,70,0,right_cong,1,cong,num_9,num_9,1,0.4510156996548176
1,71,2,right_incg,0,incg,num_7,num_9,0,0.4064021003432572
1,72,2,right_incg,0,incg,num_7,num_9,0,0.3483127001672983
1,73,2,right_incg,0,incg,num_7,num_9,0,0.27559620002284646
1,74,3,left_incg,0,incg,num_9,num_9,1,0.3219375000335276
1,75,2,right_incg,0,incg,num_7,num_9,0,0.5701753995381296
1,76,2,right_incg,0,incg,num_7,num_7,1,0.47431530011817813
1,77,3,left_incg,0,incg,num_9,num_9,1,0.36535090021789074
1,78,3,left_incg,0,incg,num_9,num_9,1,0.45929190004244447
1,79,3,left_incg,0,incg,num_9,num_9,1,0.3484535999596119
1,80,2,right_incg,0,incg,num_7,num_7,1,0.4875524998642504
1,81,3,left_incg,0,incg,num_9,num_9,1,0.4665703000500798
1,82,3,left_incg,0,incg,num_9,num_9,1,0.30892879981547594
1,83,2,right_incg,0,incg,num_7,num_7,1,0.41556450026109815
1,84,3,left_incg,0,incg,num_9,num_9,1,0.2774419002234936
1,85,2,right_incg,0,incg,num_7,num_7,1,0.295034599956125
1,86,1,left_cong,1,cong,num_7,num_7,1,0.3980080997571349
1,87,1,left_cong,1,cong,num_7,num_9,0,0.24905050033703446
1,88,1,left_cong,1,cong,num_7,num_7,1,0.3424080000258982
1,89,1,left_cong,1,cong,num_7,num_7,1,0.32318850001320243
1,90,0,right_cong,1,cong,num_9,num_9,1,0.4050866002216935
1,91,1,left_cong,1,cong,num_7,num_7,1,0.39496649987995625
1,92,1,left_cong,1,cong,num_7,num_7,1,0.32371769985184073
1,93,1,left_cong,1,cong,num_7,num_7,1,0.293244699947536
1,94,0,right_cong,1,cong,num_9,num_9,1,0.4645803002640605
1,95,1,left_cong,1,cong,num_7,num_7,1,0.3799735000357032
1,96,2,right_incg,0,incg,num_7,num_7,1,0.6834944998845458
1,97,3,left_incg,0,incg,num_9,num_9,1,0.3544226000085473
1,98,2,right_incg,0,incg,num_7,num_7,1,0.35139650013297796
1,99,3,left_incg,0,incg,num_9,num_9,1,0.31485460000112653
1,100,3,left_incg,0,incg,num_9,num_7,0,0.2887357999570668
2,1,2,right_incg,0,incg,num_7,num_7,1,0.49694939982146025
2,2,2,right_incg,0,incg,num_7,num_7,1,0.3833428998477757
2,3,3,left_incg,0,incg,num_9,num_9,1,0.41293600015342236
2,4,3,left_incg,0,incg,num_9,num_9,1,0.2889888999052346
2,5,3,left_incg,0,incg,num_9,num_9,1,0.3516776002943516
2,6,2,right_incg,0,incg,num_7,num_7,1,0.5795086002908647
2,7,3,left_incg,0,incg,num_9,num_9,1,0.4491242002695799
2,8,3,left_incg,0,incg,num_9,num_9,1,0.505313300061971
2,9,2,right_incg,0,incg,num_7,num_7,1,0.46428610011935234
2,10,2,right_incg,0,incg,num_7,num_7,1,0.4267372000031173
2,11,1,left_cong,1,cong,num_7,num_7,1,0.38435119995847344
2,12,1,left_cong,1,cong,num_7,num_7,1,0.44715659972280264
2,13,1,left_cong,1,cong,num_7,num_7,1,0.34270300017669797
2,14,0,right_cong,1,cong,num_9,num_7,0,0.3304766998626292
2,15,0,right_cong,1,cong,num_9,num_9,1,0.3485312000848353
2,16,1,left_cong,1,cong,num_7,num_7,1,0.5643776003271341
2,17,0,right_cong,1,cong,num_9,num_9,1,0.2940858998335898
2,18,0,right_cong,1,cong,num_9,num_9,1,0.44406750006601214
2,19,0,right_cong,1,cong,num_9,num_9,1,0.3241093000397086
2,20,0,right_cong,1,cong,num_9,num_9,1,0.3227519001811743
2,21,2,right_incg,0,incg,num_7,num_7,1,0.461873899679631
2,22,2,right_incg,0,incg,num_7,num_7,1,0.47531249979510903
2,23,3,left_incg,0,incg,num_9,num_9,1,0.40309649985283613
2,24,2,right_incg,0,incg,num_7,num_7,1,0.4218422998674214
2,25,3,left_incg,0,incg,num_9,num_9,1,0.41465430008247495
2,26,0,right_cong,1,cong,num_9,num_7,0,0.6055313996039331
2,27,0,right_cong,1,cong,num_9,num_9,1,0.44003550009801984
2,28,1,left_cong,1,cong,num_7,num_7,1,0.36944459984079003
2,29,0,right_cong,1,cong,num_9,num_9,1,0.25851779989898205
2,30,0,right_cong,1,cong,num_9,num_9,1,0.32952139992266893
2,31,2,right_incg,0,incg,num_7,num_7,1,0.5862642996944487
2,32,2,right_incg,0,incg,num_7,num_7,1,0.49895659973844886
2,33,2,right_incg,0,incg,num_7,num_7,1,0.380311599932611
2,34,3,left_incg,0,incg,num_9,num_9,1,0.3802948002703488
2,35,2,right_incg,0,incg,num_7,num_7,1,0.48100150004029274
2,36,1,left_cong,1,cong,num_7,num_7,1,0.5801758002489805
2,37,1,left_cong,1,cong,num_7,num_7,1,0.36552090011537075
2,38,1,left_cong,1,cong,num_7,num_7,1,0.34116740012541413
2,39,1,left_cong,1,cong,num_7,num_7,1,0.27353319991379976
2,40,0,right_cong,1,cong,num_9,num_9,1,0.2753933002240956
2,41,2,right_incg,0,incg,num_7,num_9,0,0.5835938001982868
2,42,3,left_incg,0,incg,num_9,num_9,1,0.5319270002655685
2,43,2,right_incg,0,incg,num_7,num_7,1,0.40243780007585883
2,44,3,left_incg,0,incg,num_9,num_9,1,0.3832239997573197
2,45,2,right_incg,0,incg,num_7,num_7,1,0.4080937998369336
2,46,1,left_cong,1,cong,num_7,num_7,1,0.45632079988718033
2,47,1,left_cong,1,cong,num_7,num_9,0,0.32220369996502995
2,48,1,left_cong,1,cong,num_7,num_7,1,0.4519827999174595
2,49,0,right_cong,1,cong,num_9,num_9,1,0.3660132000222802
2,50,1,left_cong,1,cong,num_7,num_7,1,0.3865430001169443
2,51,0,right_cong,1,cong,num_9,num_9,1,0.42489449959248304
2,52,0,right_cong,1,cong,num_9,num_9,1,0.3093629004433751
2,53,0,right_cong,1,cong,num_9,num_9,1,0.282120400108397
2,54,0,right_cong,1,cong,num_9,num_9,1,0.34436680004000664
2,55,0,right_cong,1,cong,num_9,num_9,1,0.3131486000493169
2,56,3,left_incg,0,incg,num_9,num_9,1,0.6043393998406827
2,57,3,left_incg,0,incg,num_9,num_9,1,0.43004680005833507
2,58,3,left_incg,0,incg,num_9,num_9,1,0.32300900015980005
2,59,2,right_incg,0,incg,num_7,num_9,0,0.31674289982765913
2,60,2,right_incg,0,incg,num_7,num_7,1,0.521336100064218
2,61,3,left_incg,0,incg,num_9,num_9,1,0.5307717001996934
2,62,3,left_incg,0,incg,num_9,num_9,1,0.35666990000754595
2,63,3,left_incg,0,incg,num_9,num_9,1,0.31300790002569556
2,64,3,left_incg,0,incg,num_9,num_9,1,0.3391465996392071
2,65,3,left_incg,0,incg,num_9,num_9,1,0.34003710001707077
2,66,1,left_cong,1,cong,num_7,num_7,1,0.5814468995667994
2,67,0,right_cong,1,cong,num_9,num_9,1,0.37067950004711747
2,68,1,left_cong,1,cong,num_7,num_7,1,0.37047370010986924
2,69,0,right_cong,1,cong,num_9,num_9,1,0.30292179994285107
2,70,0,right_cong,1,cong,num_9,num_9,1,0.5347042004577816
2,71,3,left_incg,0,incg,num_9,num_9,1,0.5557854999788105
2,72,2,right_incg,0,incg,num_7,num_7,1,0.4050714997574687
2,73,2,right_incg,0,incg,num_7,num_7,1,0.5857071001082659
2,74,2,right_incg,0,incg,num_7,num_7,1,0.4375167996622622
2,75,3,left_incg,0,incg,num_9,num_9,1,0.33202809980139136
2,76,0,right_cong,1,cong,num_9,num_9,1,0.4418228999711573
2,77,1,left_cong,1,cong,num_7,num_7,1,0.38900749990716577
2,78,0,right_cong,1,cong,num_9,num_9,1,0.265227900352329
2,79,1,left_cong,1,cong,num_7,num_7,1,0.2987636998295784
2,80,1,left_cong,1,cong,num_7,num_7,1,0.4652893003076315
2,81,1,left_cong,1,cong,num_7,num_7,1,0.42877080012112856
2,82,0,right_cong,1,cong,num_9,num_9,1,0.25535460002720356
2,83,1,left_cong,1,cong,num_7,num_7,1,0.28177399979904294
2,84,0,right_cong,1,cong,num_9,num_9,1,0.2607386000454426
2,85,1,left_cong,1,cong,num_7,num_7,1,0.31258720019832253
2,86,2,right_incg,0,incg,num_7,num_9,0,0.37530090007930994
2,87,3,left_incg,0,incg,num_9,num_9,1,0.38550909981131554
2,88,3,left_incg,0,incg,num_9,num_7,0,0.3603382003493607
2,89,3,left_incg,0,incg,num_9,num_9,1,0.41974820010364056
2,90,2,right_incg,0,incg,num_7,num_7,1,0.41020300006493926
2,91,3,left_incg,0,incg,num_9,num_9,1,0.5361256999894977
2,92,2,right_incg,0,incg,num_7,num_7,1,0.38352710008621216
2,93,2,right_incg,0,incg,num_7,num_9,0,0.27049949998036027
2,94,3,left_incg,0,incg,num_9,num_9,1,0.4014531997963786
2,95,3,left_incg,0,incg,num_9,num_9,1,0.36100210016593337
2,96,1,left_cong,1,cong,num_7,num_7,1,0.623465200420469
2,97,1,left_cong,1,cong,num_7,num_7,1,0.3359974999912083
2,98,1,left_cong,1,cong,num_7,num_7,1,0.3004410997964442
2,99,0,right_cong,1,cong,num_9,num_9,1,0.4188671000301838
2,100,0,right_cong,1,cong,num_9,num_9,1,0.28382289968430996
3,1,2,right_incg,0,incg,num_7,num_7,1,0.6601631999947131
3,2,2,right_incg,0,incg,num_7,num_7,1,0.4063657997176051
3,3,2,right_incg,0,incg,num_7,num_7,1,0.3929415000602603
3,4,2,right_incg,0,incg,num_7,num_7,1,0.38564280001446605
3,5,3,left_incg,0,incg,num_9,num_9,1,0.5253640003502369
3,6,2,right_incg,0,incg,num_7,num_7,1,0.4303329000249505
3,7,2,right_incg,0,incg,num_7,num_7,1,0.3868800001218915
3,8,2,right_incg,0,incg,num_7,num_7,1,0.31027680030092597
3,9,3,left_incg,0,incg,num_9,num_9,1,0.390966999810189
3,10,2,right_incg,0,incg,num_7,num_7,1,0.3237986001186073
3,11,0,right_cong,1,cong,num_9,num_9,1,0.39138489961624146
3,12,0,right_cong,1,cong,num_9,num_9,1,0.299002300016582
3,13,1,left_cong,1,cong,num_7,num_7,1,0.4039076999761164
3,14,1,left_cong,1,cong,num_7,num_7,1,0.4044631998986006
3,15,0,right_cong,1,cong,num_9,num_9,1,0.30848090024665
3,16,3,left_incg,0,incg,num_9,num_9,1,0.3877872000448406
3,17,3,left_incg,0,incg,num_9,num_9,1,0.39137239987030625
3,18,2,right_incg,0,incg,num_7,num_7,1,0.3748872000724077
3,19,3,left_incg,0,incg,num_9,num_9,1,0.38770159985870123
3,20,3,left_incg,0,incg,num_9,num_9,1,0.32779609970748425
3,21,3,left_incg,0,incg,num_9,num_9,1,0.445305900182575
3,22,2,right_incg,0,incg,num_7,num_7,1,0.42985849967226386
3,23,2,right_incg,0,incg,num_7,num_7,1,0.32014140021055937
3,24,3,left_incg,0,incg,num_9,num_9,1,0.36290170019492507
3,25,3,left_incg,0,incg,num_9,num_9,1,0.30687819980084896
3,26,0,right_cong,1,cong,num_9,num_9,1,0.29597430024296045
3,27,1,left_cong,1,cong,num_7,num_7,1,0.31965050008147955
3,28,1,left_cong,1,cong,num_7,num_9,0,0.28633400006219745
3,29,1,left_cong,1,cong,num_7,num_7,1,0.3991046999581158
3,30,0,right_cong,1,cong,num_9,num_9,1,0.40484619978815317
3,31,2,right_incg,0,incg,num_7,num_9,0,0.521989299915731
3,32,3,left_incg,0,incg,num_9,num_9,1,0.38655920000746846
3,33,2,right_incg,0,incg,num_7,num_7,1,0.3185358000919223
3,34,3,left_incg,0,incg,num_9,num_9,1,0.3516450999304652
3,35,2,right_incg,0,incg,num_7,num_7,1,0.3727023000828922
3,36,1,left_cong,1,cong,num_7,num_7,1,0.45566520001739264
3,37,0,right_cong,1,cong,num_9,num_9,1,0.2793187000788748
3,38,1,left_cong,1,cong,num_7,num_7,1,0.2825666000135243
3,39,0,right_cong,1,cong,num_9,num_9,1,0.28296069987118244
3,40,1,left_cong,1,cong,num_7,num_7,1,0.3236036002635956
3,41,2,right_incg,0,incg,num_7,num_7,1,0.5806863000616431
3,42,2,right_incg,0,incg,num_7,num_7,1,0.3513738000765443
3,43,2,right_incg,0,incg,num_7,num_7,1,0.3689689999446273
3,44,2,right_incg,0,incg,num_7,num_7,1,0.3836634997278452
3,45,3,left_incg,0,incg,num_9,num_9,1,0.44286199985072017
3,46,2,right_incg,0,incg,num_7,num_7,1,0.43722050031647086
3,47,2,right_incg,0,incg,num_7,num_7,1,0.4565885001793504
3,48,2,right_incg,0,incg,num_7,num_7,1,0.389516799710691
3,49,2,right_incg,0,incg,num_7,num_7,1,0.43357030022889376
3,50,2,right_incg,0,incg,num_7,num_7,1,0.34309769980609417
3,51,1,left_cong,1,cong,num_7,num_7,1,0.4071484999731183
3,52,1,left_cong,1,cong,num_7,num_7,1,0.49818480014801025
3,53,0,right_cong,1,cong,num_9,num_9,1,0.5462616998702288
3,54,0,right_cong,1,cong,num_9,num_9,1,0.36653489992022514
3,55,0,right_cong,1,cong,num_9,num_7,0,0.27798759983852506
3,56,2,right_incg,0,incg,num_7,num_9,0,0.5227950001135468
3,57,2,right_incg,0,incg,num_7,num_7,1,0.41260370006784797
3,58,3,left_incg,0,incg,num_9,num_9,1,0.3977447999641299
3,59,2,right_incg,0,incg,num_7,num_7,1,0.49584999959915876
3,60,3,left_incg,0,incg,num_9,num_9,1,0.3004303998313844
3,61,2,right_incg,0,incg,num_7,num_7,1,0.49044830026105046
3,62,3,left_incg,0,incg,num_9,num_9,1,0.3532007997855544
3,63,3,left_incg,0,incg,num_9,num_9,1,0.4107690001837909
3,64,2,right_incg,0,incg,num_7,num_7,1,0.39032999984920025
3,65,2,right_incg,0,incg,num_7,num_7,1,0.39623500034213066
3,66,2,right_incg,0,incg,num_7,num_7,1,0.3703884999267757
3,67,3,left_incg,0,incg,num_9,num_9,1,0.38555620005354285
3,68,3,left_incg,0,incg,num_9,num_9,1,0.33505439991131425
3,69,2,right_incg,0,incg,num_7,num_7,1,0.4172346997074783
3,70,3,left_incg,0,incg,num_9,num_9,1,0.42290009977295995
3,71,1,left_cong,1,cong,num_7,num_9,0,0.568023500032723
3,72,1,left_cong,1,cong,num_7,num_7,1,0.34687309991568327
3,73,1,left_cong,1,cong,num_7,num_7,1,0.3254750999622047
3,74,1,left_cong,1,cong,num_7,num_7,1,0.3261985001154244
3,75,0,right_cong,1,cong,num_9,num_7,0,0.27367240004241467
3,76,3,left_incg,0,incg,num_9,num_7,0,0.46832480002194643
3,77,2,right_incg,0,incg,num_7,num_7,1,0.618888100143522
3,78,3,left_incg,0,incg,num_9,num_9,1,0.29849519999697804
3,79,2,right_incg,0,incg,num_7,num_7,1,0.3771931999363005
3,80,2,right_incg,0,incg,num_7,num_7,1,0.5336247999221087
3,81,2,right_incg,0,incg,num_7,num_7,1,0.44552910001948476
3,82,3,left_incg,0,incg,num_9,num_9,1,0.37083050003275275
3,83,2,right_incg,0,incg,num_7,num_7,1,0.2977785002440214
3,84,3,left_incg,0,incg,num_9,num_9,1,0.277740600053221
3,85,3,left_incg,0,incg,num_9,num_9,1,0.3049564999528229
3,86,2,right_incg,0,incg,num_7,num_7,1,0.4843561998568475
3,87,2,right_incg,0,incg,num_7,num_7,1,0.565945299807936
3,88,3,left_incg,0,incg,num_9,num_9,1,0.3799250000156462
3,89,2,right_incg,0,incg,num_7,num_7,1,0.44783270033076406
3,90,3,left_incg,0,incg,num_9,num_9,1,0.28542529977858067
3,91,2,right_incg,0,incg,num_7,num_7,1,0.43776920018717647
3,92,3,left_incg,0,incg,num_9,num_9,1,0.26709460001438856
3,93,2,right_incg,0,incg,num_7,num_7,1,0.494486500043422
3,94,2,right_incg,0,incg,num_7,num_7,1,0.6005742000415921
3,95,2,right_incg,0,incg,num_7,num_7,1,0.46304979966953397
3,96,0,right_cong,1,cong,num_9,num_9,1,0.7688401001505554
3,97,0,right_cong,1,cong,num_9,num_9,1,0.47176510002464056
3,98,0,right_cong,1,cong,num_9,num_9,1,0.3069599000737071
3,99,0,right_cong,1,cong,num_9,num_9,1,0.32944290013983846
3,100,1,left_cong,1,cong,num_7,num_7,1,0.355901800096035
4,1,0,right_cong,1,cong,num_9,num_9,1,0.3309348998591304
4,2,1,left_cong,1,cong,num_7,num_9,0,0.3096831003203988
4,3,0,right_cong,1,cong,num_9,num_9,1,0.33484699996188283
4,4,0,right_cong,1,cong,num_9,num_9,1,0.34879389964044094
4,5,1,left_cong,1,cong,num_7,num_7,1,0.4161952999420464
4,6,3,left_incg,0,incg,num_9,num_9,1,0.40096520027145743
4,7,3,left_incg,0,incg,num_9,num_9,1,0.3779778997413814
4,8,3,left_incg,0,incg,num_9,num_9,1,0.2893632003106177
4,9,3,left_incg,0,incg,num_9,num_9,1,0.4769645999185741
4,10,3,left_incg,0,incg,num_9,num_9,1,0.34695670008659363
4,11,2,right_incg,0,incg,num_7,num_7,1,0.5836446001194417
4,12,3,left_incg,0,incg,num_9,num_9,1,0.4279326000250876
4,13,2,right_incg,0,incg,num_7,num_7,1,0.4252365999855101
4,14,3,left_incg,0,incg,num_9,num_9,1,0.4079498997889459
4,15,3,left_incg,0,incg,num_9,num_9,1,0.3397117997519672
4,16,2,right_incg,0,incg,num_7,num_7,1,0.5739724999293685
4,17,3,left_incg,0,incg,num_9,num_9,1,0.3748037996701896
4,18,2,right_incg,0,incg,num_7,num_7,1,0.32268139999359846
4,19,3,left_incg,0,incg,num_9,num_9,1,0.3233957001939416
4,20,3,left_incg,0,incg,num_9,num_7,0,0.30739099998027086
4,21,1,left_cong,1,cong,num_7,num_7,1,0.5471987002529204
4,22,0,right_cong,1,cong,num_9,num_9,1,0.3156396998092532
4,23,1,left_cong,1,cong,num_7,num_7,1,0.3645902997814119
4,24,1,left_cong,1,cong,num_7,num_7,1,0.43145669996738434
4,25,0,right_cong,1,cong,num_9,num_9,1,0.320138500072062
4,26,3,left_incg,0,incg,num_9,num_9,1,0.41067759972065687
4,27,3,left_incg,0,incg,num_9,num_9,1,0.39539660001173615
4,28,3,left_incg,0,incg,num_9,num_9,1,0.2990242000669241
4,29,3,left_incg,0,incg,num_9,num_9,1,0.32058259984478354
4,30,3,left_incg,0,incg,num_9,num_9,1,0.3130396003834903
4,31,2,right_incg,0,incg,num_7,num_7,1,0.40360530000180006
4,32,3,left_incg,0,incg,num_9,num_9,1,0.2795595000497997
4,33,2,right_incg,0,incg,num_7,num_7,1,0.43167660012841225
4,34,3,left_incg,0,incg,num_9,num_9,1,0.3076717001385987
4,35,2,right_incg,0,incg,num_7,num_7,1,0.36015040008351207
4,36,3,left_incg,0,incg,num_9,num_9,1,0.5344105996191502
4,37,3,left_incg,0,incg,num_9,num_9,1,0.4126263000071049
4,38,2,right_incg,0,incg,num_7,num_7,1,0.3858668003231287
4,39,2,right_incg,0,incg,num_7,num_7,1,0.34596210019662976
4,40,2,right_incg,0,incg,num_7,num_7,1,0.5248885997571051
4,41,1,left_cong,1,cong,num_7,num_7,1,0.366971000097692
4,42,0,right_cong,1,cong,num_9,num_9,1,0.37604269990697503
4,43,1,left_cong,1,cong,num_7,num_7,1,0.2680541002191603
4,44,0,right_cong,1,cong,num_9,num_9,1,0.23571750009432435
4,45,1,left_cong,1,cong,num_7,num_7,1,0.38341479981318116
4,46,0,right_cong,1,cong,num_9,num_9,1,0.35602089995518327
4,47,1,left_cong,1,cong,num_7,num_7,1,0.321312100160867
4,48,1,left_cong,1,cong,num_7,num_9,0,0.2555041001178324
4,49,1,left_cong,1,cong,num_7,num_7,1,0.34784500021487474
4,50,1,left_cong,1,cong,num_7,num_7,1,0.35339009994640946
4,51,1,left_cong,1,cong,num_7,num_7,1,0.5002500000409782
4,52,1,left_cong,1,cong,num_7,num_7,1,0.3379848999902606
4,53,0,right_cong,1,cong,num_9,num_9,1,0.3712542997673154
4,54,1,left_cong,1,cong,num_7,num_7,1,0.34841950004920363
4,55,1,left_cong,1,cong,num_7,num_9,0,0.32364990003407
4,56,0,right_cong,1,cong,num_9,num_9,1,0.3941008998081088
4,57,1,left_cong,1,cong,num_7,num_7,1,0.3238507998175919
4,58,0,right_cong,1,cong,num_9,num_9,1,0.2708658999763429
4,59,0,right_cong,1,cong,num_9,num_9,1,0.3859081002883613
4,60,0,right_cong,1,cong,num_9,num_9,1,0.37705260002985597
4,61,3,left_incg,0,incg,num_9,num_9,1,0.39672800013795495
4,62,3,left_incg,0,incg,num_9,num_9,1,0.34151099994778633
4,63,3,left_incg,0,incg,num_9,num_9,1,0.3050627000629902
4,64,2,right_incg,0,incg,num_7,num_7,1,0.43646829994395375
4,65,3,left_incg,0,incg,num_9,num_9,1,0.4811280001886189
4,66,1,left_cong,1,cong,num_7,num_9,0,0.4997331998310983
4,67,1,left_cong,1,cong,num_7,num_9,0,0.33915690006688237
4,68,1,left_cong,1,cong,num_7,num_9,0,0.3759332001209259
4,69,1,left_cong,1,cong,num_7,num_9,0,0.4758731001056731
4,70,0,right_cong,1,cong,num_9,num_7,0,0.544535200111568
4,71,0,right_cong,1,cong,num_9,num_9,1,0.3234565001912415
4,72,0,right_cong,1,cong,num_9,num_9,1,0.39576359977945685
4,73,1,left_cong,1,cong,num_7,num_7,1,0.40012079989537597
4,74,1,left_cong,1,cong,num_7,num_7,1,0.5002553998492658
4,75,0,right_cong,1,cong,num_9,num_9,1,0.33316290006041527
4,76,1,left_cong,1,cong,num_7,num_7,1,0.371707399841398
4,77,0,right_cong,1,cong,num_9,num_9,1,0.3756021000444889
4,78,1,left_cong,1,cong,num_7,num_7,1,0.2665878999978304
4,79,1,left_cong,1,cong,num_7,num_9,0,0.2743142996914685
4,80,1,left_cong,1,cong,num_7,num_7,1,0.37268250016495585
4,81,3,left_incg,0,incg,num_9,num_9,1,0.5068112001754344
4,82,3,left_incg,0,incg,num_9,num_9,1,0.38094229996204376
4,83,2,right_incg,0,incg,num_7,num_7,1,0.4076422997750342
4,84,3,left_incg,0,incg,num_9,num_7,0,0.3475732998922467
4,85,3,left_incg,0,incg,num_9,num_9,1,0.3908660998567939
4,86,1,left_cong,1,cong,num_7,num_7,1,0.370675599668175
4,87,1,left_cong,1,cong,num_7,num_7,1,0.4166028997860849
4,88,1,left_cong,1,cong,num_7,num_7,1,0.3859362998045981
4,89,0,right_cong,1,cong,num_9,num_9,1,0.4963977001607418
4,90,0,right_cong,1,cong,num_9,num_9,1,0.324571100063622
4,91,2,right_incg,0,incg,num_7,num_9,0,0.5657739001326263
4,92,3,left_incg,0,incg,num_9,num_9,1,0.3224960998632014
4,93,3,left_incg,0,incg,num_9,num_9,1,0.3335277996957302
4,94,2,right_incg,0,incg,num_7,num_7,1,0.34865269996225834
4,95,3,left_incg,0,incg,num_9,num_9,1,0.35395090002566576
4,96,2,right_incg,0,incg,num_7,num_7,1,0.31940599996596575
4,97,2,right_incg,0,incg,num_7,num_7,1,0.3605372002348304
4,98,3,left_incg,0,incg,num_9,num_9,1,0.4058530000038445
4,99,2,right_incg,0,incg,num_7,num_7,1,0.30385629972442985
4,100,2,right_incg,0,incg,num_7,num_9,0,0.25775730004534125
5,1,0,right_cong,1,cong,num_9,num_9,1,0.33028810005635023
5,2,0,right_cong,1,cong,num_9,num_9,1,0.36224980000406504
5,3,0,right_cong,1,cong,num_9,num_9,1,0.28758740006014705
5,4,1,left_cong,1,cong,num_7,num_7,1,0.38416170002892613
5,5,1,left_cong,1,cong,num_7,num_7,1,0.4856533999554813
5,6,3,left_incg,0,incg,num_9,num_9,1,0.4484655000269413
5,7,3,left_incg,0,incg,num_9,num_7,0,0.27043989999219775
5,8,3,left_incg,0,incg,num_9,num_9,1,0.2877588998526335
5,9,3,left_incg,0,incg,num_9,num_9,1,0.3709969003684819
5,10,2,right_incg,0,incg,num_7,num_7,1,0.35216959984973073
5,11,0,right_cong,1,cong,num_9,num_9,1,0.3661138997413218
5,12,1,left_cong,1,cong,num_7,num_7,1,0.3747694999910891
5,13,1,left_cong,1,cong,num_7,num_7,1,0.41035469993948936
5,14,0,right_cong,1,cong,num_9,num_9,1,0.3487566001713276
5,15,1,left_cong,1,cong,num_7,num_7,1,0.3353300001472235
5,16,3,left_incg,0,incg,num_9,num_9,1,0.3873678003437817
5,17,2,right_incg,0,incg,num_7,num_7,1,0.46042210003361106
5,18,2,right_incg,0,incg,num_7,num_7,1,0.40163239976391196
5,19,2,right_incg,0,incg,num_7,num_7,1,0.34125709999352694
5,20,2,right_incg,0,incg,num_7,num_7,1,0.37547790026292205
5,21,1,left_cong,1,cong,num_7,num_9,0,0.7030177996493876
5,22,1,left_cong,1,cong,num_7,num_7,1,0.5093001001514494
5,23,0,right_cong,1,cong,num_9,num_9,1,0.3842195998877287
5,24,0,right_cong,1,cong,num_9,num_9,1,0.3282213001511991
5,25,1,left_cong,1,cong,num_7,num_7,1,0.3837136998772621
5,26,3,left_incg,0,incg,num_9,num_7,0,0.5148931997828186
5,27,3,left_incg,0,incg,num_9,,0,
5,28,3,left_incg,0,incg,num_9,num_9,1,0.3672744003124535
5,29,3,left_incg,0,incg,num_9,num_9,1,0.3148336997255683
5,30,3,left_incg,0,incg,num_9,num_9,1,0.373133999761194
5,31,2,right_incg,0,incg,num_7,num_7,1,0.4095348999835551
5,32,3,left_incg,0,incg,num_9,num_9,1,0.2856572000309825
5,33,2,right_incg,0,incg,num_7,num_7,1,0.396161699667573
5,34,3,left_incg,0,incg,num_9,num_9,1,0.2603252003900707
5,35,2,right_incg,0,incg,num_7,num_7,1,0.2831788002513349
5,36,0,right_cong,1,cong,num_9,num_9,1,0.3811360001564026
5,37,1,left_cong,1,cong,num_7,num_7,1,0.261043899692595
5,38,0,right_cong,1,cong,num_9,num_9,1,0.3592026000842452
5,39,0,right_cong,1,cong,num_9,num_9,1,0.37603449961170554
5,40,1,left_cong,1,cong,num_7,num_7,1,0.37422530027106404
5,41,0,right_cong,1,cong,num_9,num_9,1,0.46343869995325804
5,42,0,right_cong,1,cong,num_9,num_9,1,0.3708978998474777
5,43,1,left_cong,1,cong,num_7,num_7,1,0.39970079995691776
5,44,0,right_cong,1,cong,num_9,num_9,1,0.37220710003748536
5,45,0,right_cong,1,cong,num_9,num_9,1,0.4596446002833545
5,46,0,right_cong,1,cong,num_9,num_9,1,0.3416983997449279
5,47,0,right_cong,1,cong,num_9,num_9,1,0.2905553998425603
5,48,1,left_cong,1,cong,num_7,num_7,1,0.3693082998506725
5,49,0,right_cong,1,cong,num_9,num_9,1,0.27288780035451055
5,50,1,left_cong,1,cong,num_7,num_7,1,0.3476478001102805
5,51,2,right_incg,0,incg,num_7,num_7,1,0.36628099996596575
5,52,2,right_incg,0,incg,num_7,num_7,1,0.42536350013688207
5,53,2,right_incg,0,incg,num_7,num_7,1,0.3419622997753322
5,54,2,right_incg,0,incg,num_7,num_7,1,0.34719569981098175
5,55,2,right_incg,0,incg,num_7,num_7,1,0.3186535001732409
5,56,2,right_incg,0,incg,num_7,num_7,1,0.6766790002584457
5,57,2,right_incg,0,incg,num_7,num_7,1,0.39733019983395934
5,58,3,left_incg,0,incg,num_9,num_9,1,0.447441500145942
5,59,3,left_incg,0,incg,num_9,num_9,1,0.33015900012105703
5,60,2,right_incg,0,incg,num_7,num_7,1,0.35849080001935363
5,61,2,right_incg,0,incg,num_7,num_7,1,0.42639659997075796
5,62,3,left_incg,0,incg,num_9,num_9,1,0.34712279960513115
5,63,2,right_incg,0,incg,num_7,num_7,1,0.379797900095582
5,64,2,right_incg,0,incg,num_7,num_7,1,0.35856990003958344
5,65,3,left_incg,0,incg,num_9,num_9,1,0.3582826000638306
5,66,0,right_cong,1,cong,num_9,num_9,1,0.33034889958798885
5,67,0,right_cong,1,cong,num_9,num_9,1,0.345008899923414
5,68,1,left_cong,1,cong,num_7,num_7,1,0.3825734998099506
5,69,0,right_cong,1,cong,num_9,num_9,1,0.30456169974058867
5,70,1,left_cong,1,cong,num_7,num_7,1,0.3405658998526633
5,71,0,right_cong,1,cong,num_9,num_9,1,0.43815140007063746
5,72,0,right_cong,1,cong,num_9,num_9,1,0.4115179004147649
5,73,0,right_cong,1,cong,num_9,num_9,1,0.28985549975186586
5,74,0,right_cong,1,cong,num_9,num_9,1,0.31754730036482215
5,75,0,right_cong,1,cong,num_9,num_9,1,0.2836203002370894
5,76,1,left_cong,1,cong,num_7,num_7,1,0.3874793997965753
5,77,1,left_cong,1,cong,num_7,num_9,0,0.35037560015916824
5,78,0,right_cong,1,cong,num_9,num_9,1,0.31728060031309724
5,79,0,right_cong,1,cong,num_9,num_9,1,0.38502149982377887
5,80,1,left_cong,1,cong,num_7,num_7,1,0.37855140026658773
5,81,1,left_cong,1,cong,num_7,num_7,1,0.3770510000176728
5,82,0,right_cong,1,cong,num_9,num_9,1,0.28632300021126866
5,83,1,left_cong,1,cong,num_7,num_7,1,0.29092369973659515
5,84,1,left_cong,1,cong,num_7,num_7,1,0.4433587999083102
5,85,1,left_cong,1,cong,num_7,num_7,1,0.33765329979360104
5,86,3,left_incg,0,incg,num_9,num_9,1,0.6939560999162495
5,87,2,right_incg,0,incg,num_7,num_7,1,0.4058311996050179
5,88,2,right_incg,0,incg,num_7,num_7,1,0.48849650006741285
5,89,2,right_incg,0,incg,num_7,num_7,1,0.38220590027049184
5,90,2,right_incg,0,incg,num_7,num_7,1,0.3659119997173548
5,91,1,left_cong,1,cong,num_7,num_7,1,0.4972975002601743
5,92,1,left_cong,1,cong,num_7,num_7,1,0.3912021000869572
5,93,1,left_cong,1,cong,num_7,num_7,1,0.38797480007633567
5,94,1,left_cong,1,cong,num_7,num_7,1,0.3321569999679923
5,95,1,left_cong,1,cong,num_7,num_7,1,0.30089039960876107
5,96,0,right_cong,1,cong,num_9,num_9,1,0.3966407999396324
5,97,1,left_cong,1,cong,num_7,num_7,1,0.3742078999057412
5,98,1,left_cong,1,cong,num_7,num_7,1,0.4999530999921262
5,99,0,right_cong,1,cong,num_9,num_9,1,0.3681588997133076
5,100,1,left_cong,1,cong,num_7,num_7,1,0.3566240002401173
6,1,0,right_cong,1,cong,num_9,num_9,1,0.35298610012978315
6,2,0,right_cong,1,cong,num_9,num_9,1,0.3082543001510203
6,3,0,right_cong,1,cong,num_9,num_9,1,0.39442240027710795
6,4,0,right_cong,1,cong,num_9,num_9,1,0.26299600023776293
6,5,1,left_cong,1,cong,num_7,num_7,1,0.3910254999063909
6,6,1,left_cong,1,cong,num_7,num_7,1,0.38334299996495247
6,7,1,left_cong,1,cong,num_7,num_7,1,0.476454199757427
6,8,1,left_cong,1,cong,num_7,num_7,1,0.3808863000012934
6,9,1,left_cong,1,cong,num_7,num_9,0,0.5402337000705302
6,10,1,left_cong,1,cong,num_7,num_7,1,0.6727957003749907
6,11,2,right_incg,0,incg,num_7,num_9,0,0.3801843002438545
6,12,3,left_incg,0,incg,num_9,num_9,1,0.3909101001918316
6,13,2,right_incg,0,incg,num_7,num_7,1,0.4577591000124812
6,14,2,right_incg,0,incg,num_7,num_7,1,0.35162270022556186
6,15,2,right_incg,0,incg,num_7,num_7,1,0.451365000102669
6,16,0,right_cong,1,cong,num_9,num_9,1,0.2966881999745965
6,17,1,left_cong,1,cong,num_7,num_7,1,0.3412817995995283
6,18,1,left_cong,1,cong,num_7,num_7,1,0.28721370035782456
6,19,1,left_cong,1,cong,num_7,num_7,1,0.27370449993759394
6,20,0,right_cong,1,cong,num_9,num_9,1,0.36754210013896227
6,21,3,left_incg,0,incg,num_9,num_7,0,0.4312974000349641
6,22,3,left_incg,0,incg,num_9,num_9,1,0.39804660016670823
6,23,3,left_incg,0,incg,num_9,num_9,1,0.39343889988958836
6,24,3,left_incg,0,incg,num_9,num_9,1,0.2984972996637225
6,25,3,left_incg,0,incg,num_9,num_9,1,0.35374730033800006
6,26,3,left_incg,0,incg,num_9,num_9,1,0.4507741001434624
6,27,2,right_incg,0,incg,num_7,num_7,1,0.36279379995539784
6,28,3,left_incg,0,incg,num_9,num_9,1,0.3326296000741422
6,29,3,left_incg,0,incg,num_9,num_9,1,0.3200660003349185
6,30,2,right_incg,0,incg,num_7,num_9,0,0.30695270001888275
6,31,2,right_incg,0,incg,num_7,num_7,1,0.5034292000345886
6,32,3,left_incg,0,incg,num_9,num_9,1,0.3115036999806762
6,33,3,left_incg,0,incg,num_9,num_9,1,0.3774760998785496
6,34,3,left_incg,0,incg,num_9,num_9,1,0.36467659985646605
6,35,2,right_incg,0,incg,num_7,num_7,1,0.4828957999125123
6,36,1,left_cong,1,cong,num_7,num_7,1,0.48055189987644553
6,37,0,right_cong,1,cong,num_9,num_9,1,0.31933700013905764
6,38,0,right_cong,1,cong,num_9,num_9,1,0.39062719978392124
6,39,1,left_cong,1,cong,num_7,num_7,1,0.2873517000116408
6,40,1,left_cong,1,cong,num_7,num_9,0,0.34313050005584955
6,41,2,right_incg,0,incg,num_7,num_7,1,0.6147583001293242
6,42,2,right_incg,0,incg,num_7,num_7,1,0.4365312000736594
6,43,3,left_incg,0,incg,num_9,num_9,1,0.4100831001996994
6,44,3,left_incg,0,incg,num_9,num_9,1,0.3479929999448359
6,45,2,right_incg,0,incg,num_7,num_7,1,0.6423743003979325
6,46,0,right_cong,1,cong,num_9,num_9,1,0.3587720999494195
6,47,1,left_cong,1,cong,num_7,num_7,1,0.3405462997034192
6,48,0,right_cong,1,cong,num_9,num_9,1,0.2753347000107169
6,49,1,left_cong,1,cong,num_7,num_7,1,0.2772776996716857
6,50,0,right_cong,1,cong,num_9,num_9,1,0.29025180032476783
6,51,3,left_incg,0,incg,num_9,num_9,1,0.4923685002140701
6,52,3,left_incg,0,incg,num_9,num_9,1,0.32841229997575283
6,53,3,left_incg,0,incg,num_9,num_9,1,0.3407331998459995
6,54,2,right_incg,0,incg,num_7,num_7,1,0.44125409983098507
6,55,2,right_incg,0,incg,num_7,num_7,1,0.41556019987910986
6,56,0,right_cong,1,cong,num_9,num_9,1,0.3763708998449147
6,57,1,left_cong,1,cong,num_7,num_7,1,0.3881385000422597
6,58,1,left_cong,1,cong,num_7,num_9,0,0.35653889970853925
6,59,0,right_cong,1,cong,num_9,num_9,1,0.29044409980997443
6,60,1,left_cong,1,cong,num_7,num_7,1,0.26869750022888184
6,61,0,right_cong,1,cong,num_9,num_9,1,0.439586800057441
6,62,0,right_cong,1,cong,num_9,num_9,1,0.3079957999289036
6,63,1,left_cong,1,cong,num_7,num_7,1,0.35157860023900867
6,64,0,right_cong,1,cong,num_9,num_9,1,0.39044349966570735
6,65,0,right_cong,1,cong,num_9,num_9,1,0.31716790003702044
6,66,1,left_cong,1,cong,num_7,num_7,1,0.3216038001701236
6,67,0,right_cong,1,cong,num_9,num_9,1,0.35969260009005666
6,68,1,left_cong,1,cong,num_7,num_7,1,0.3120202999562025
6,69,1,left_cong,1,cong,num_7,num_9,0,0.28992339968681335
6,70,0,right_cong,1,cong,num_9,num_9,1,0.379307399969548
6,71,1,left_cong,1,cong,num_7,num_7,1,0.5672565996646881
6,72,1,left_cong,1,cong,num_7,num_9,0,0.27883339999243617
6,73,0,right_cong,1,cong,num_9,num_9,1,0.4321361999027431
6,74,1,left_cong,1,cong,num_7,num_7,1,0.38923920039087534
6,75,0,right_cong,1,cong,num_9,num_9,1,0.3101999000646174
6,76,3,left_incg,0,incg,num_9,num_9,1,0.35356830013915896
6,77,2,right_incg,0,incg,num_7,num_7,1,0.3751301998272538
6,78,2,right_incg,0,incg,num_7,num_9,0,0.2222212003543973
6,79,2,right_incg,0,incg,num_7,num_7,1,0.40415749978274107
6,80,2,right_incg,0,incg,num_7,num_7,1,0.35711260000243783
6,81,3,left_incg,0,incg,num_9,num_9,1,0.3294131997972727
6,82,2,right_incg,0,incg,num_7,num_7,1,0.36441060015931726
6,83,2,right_incg,0,incg,num_7,num_7,1,0.38505859998986125
6,84,3,left_incg,0,incg,num_9,num_9,1,0.3713961001485586
6,85,2,right_incg,0,incg,num_7,num_7,1,0.36939539993181825
6,86,2,right_incg,0,incg,num_7,num_7,1,0.5204770001582801
6,87,2,right_incg,0,incg,num_7,num_7,1,0.440179199911654
6,88,3,left_incg,0,incg,num_9,num_9,1,0.33230730006471276
6,89,2,right_incg,0,incg,num_7,num_7,1,0.5351928002201021
6,90,3,left_incg,0,incg,num_9,num_9,1,0.3822209001518786
6,91,0,right_cong,1,cong,num_9,num_9,1,0.5066714999265969
6,92,0,right_cong,1,cong,num_9,num_9,1,0.32628609985113144
6,93,1,left_cong,1,cong,num_7,num_7,1,0.3603842998854816
6,94,0,right_cong,1,cong,num_9,num_9,1,0.2808854002505541
6,95,1,left_cong,1,cong,num_7,num_7,1,0.27740459982305765
6,96,3,left_incg,0,incg,num_9,num_9,1,0.43254350032657385
6,97,3,left_incg,0,incg,num_9,num_9,1,0.5009834999218583
6,98,3,left_incg,0,incg,num_9,num_9,1,0.3107227999716997
6,99,2,right_incg,0,incg,num_7,num_7,1,0.4159462000243366
6,100,3,left_incg,0,incg,num_9,num_7,0,0.2694043000228703
7,1,0,right_cong,1,cong,num_9,num_9,1,0.38649299973621964
7,2,0,right_cong,1,cong,num_9,num_9,1,0.3562660999596119
7,3,1,left_cong,1,cong,num_7,num_7,1,0.4061743002384901
7,4,1,left_cong,1,cong,num_7,num_7,1,0.2720487001352012
7,5,0,right_cong,1,cong,num_9,num_9,1,0.2922124001197517
7,6,3,left_incg,0,incg,num_9,num_9,1,0.38415499962866306
7,7,3,left_incg,0,incg,num_9,num_9,1,0.39008969999849796
7,8,2,right_incg,0,incg,num_7,num_7,1,0.3704447001218796
7,9,3,left_incg,0,incg,num_9,,0,
7,10,2,right_incg,0,incg,num_7,num_7,1,0.3787138997577131
7,11,0,right_cong,1,cong,num_9,num_9,1,0.3343080999329686
7,12,0,right_cong,1,cong,num_9,num_9,1,0.3233095002360642
7,13,0,right_cong,1,cong,num_9,num_9,1,0.2786554000340402
7,14,0,right_cong,1,cong,num_9,num_9,1,0.283126899972558
7,15,1,left_cong,1,cong,num_7,num_7,1,0.40444150008261204
7,16,1,left_cong,1,cong,num_7,num_7,1,0.4266963000409305
7,17,0,right_cong,1,cong,num_9,num_9,1,0.35785460006445646
7,18,0,right_cong,1,cong,num_9,num_9,1,0.28221380012109876
7,19,1,left_cong,1,cong,num_7,num_7,1,0.3470371998846531
7,20,1,left_cong,1,cong,num_7,num_7,1,0.3993140999227762
7,21,3,left_incg,0,incg,num_9,num_9,1,0.3921290999278426
7,22,2,right_incg,0,incg,num_7,num_7,1,0.35844149999320507
7,23,2,right_incg,0,incg,num_7,num_9,0,0.42918929969891906
7,24,3,left_incg,0,incg,num_9,num_9,1,0.38328429963439703
7,25,2,right_incg,0,incg,num_7,num_7,1,0.40307570016011596
7,26,2,right_incg,0,incg,num_7,num_7,1,0.4635835001245141
7,27,2,right_incg,0,incg,num_7,num_7,1,0.4431433998979628
7,28,2,right_incg,0,incg,num_7,num_7,1,0.34128790022805333
7,29,2,right_incg,0,incg,num_7,num_7,1,0.3436908000148833
7,30,2,right_incg,0,incg,num_7,num_7,1,0.31021189969033003
7,31,0,right_cong,1,cong,num_9,num_9,1,0.3298166999593377
7,32,1,left_cong,1,cong,num_7,num_7,1,0.33445389987900853
7,33,0,right_cong,1,cong,num_9,num_9,1,0.32170999981462955
7,34,1,left_cong,1,cong,num_7,num_7,1,0.2748854998499155
7,35,0,right_cong,1,cong,num_9,num_9,1,0.2812835001386702
7,36,1,left_cong,1,cong,num_7,num_7,1,0.4134038002230227
7,37,0,right_cong,1,cong,num_9,num_9,1,0.3384981001727283
7,38,0,right_cong,1,cong,num_9,num_9,1,0.4034486999735236
7,39,0,right_cong,1,cong,num_9,num_9,1,0.32138779992237687
7,40,1,left_cong,1,cong,num_7,num_7,1,0.33110619988292456
7,41,0,right_cong,1,cong,num_9,num_9,1,0.3826735997572541
7,42,1,left_cong,1,cong,num_7,num_7,1,0.3467164998874068
7,43,0,right_cong,1,cong,num_9,num_9,1,0.34106400003656745
7,44,0,right_cong,1,cong,num_9,num_9,1,0.44704220024868846
7,45,1,left_cong,1,cong,num_7,num_7,1,0.30890149995684624
7,46,2,right_incg,0,incg,num_7,num_9,0,0.40329489996656775
7,47,3,left_incg,0,incg,num_9,num_9,1,0.3378391000442207
7,48,3,left_incg,0,incg,num_9,num_9,1,0.42520130006596446
7,49,2,right_incg,0,incg,num_7,num_7,1,0.34611960034817457
7,50,2,right_incg,0,incg,num_7,num_7,1,0.3191875000484288
7,51,0,right_cong,1,cong,num_9,num_9,1,0.3604210000485182
7,52,1,left_cong,1,cong,num_7,num_7,1,0.3657001997344196
7,53,1,left_cong,1,cong,num_7,num_7,1,0.3697989000938833
7,54,0,right_cong,1,cong,num_9,num_9,1,0.3066424001008272
7,55,1,left_cong,1,cong,num_7,num_7,1,0.296528700273484
7,56,3,left_incg,0,incg,num_9,num_7,0,0.4364436003379524
7,57,2,right_incg,0,incg,num_7,num_7,1,0.41651330003514886
7,58,3,left_incg,0,incg,num_9,num_9,1,0.3734920001588762
7,59,3,left_incg,0,incg,num_9,num_9,1,0.44923660019412637
7,60,2,right_incg,0,incg,num_7,num_7,1,0.445690399967134
7,61,2,right_incg,0,incg,num_7,num_7,1,0.4112956998869777
7,62,3,left_incg,0,incg,num_9,num_9,1,0.3248819001019001
7,63,2,right_incg,0,incg,num_7,num_7,1,0.3314269999973476
7,64,2,right_incg,0,incg,num_7,num_7,1,0.427260700147599
7,65,2,right_incg,0,incg,num_7,num_7,1,0.44975270004943013
7,66,0,right_cong,1,cong,num_9,num_9,1,0.3080000001937151
7,67,0,right_cong,1,cong,num_9,num_9,1,0.44987089978531003
7,68,0,right_cong,1,cong,num_9,num_9,1,0.3715121001005173
7,69,0,right_cong,1,cong,num_9,num_9,1,0.3055934002622962
7,70,1,left_cong,1,cong,num_7,num_7,1,0.46348940022289753
7,71,0,right_cong,1,cong,num_9,num_9,1,0.3805493996478617
7,72,1,left_cong,1,cong,num_7,num_7,1,0.3950860998593271
7,73,0,right_cong,1,cong,num_9,num_9,1,0.3542522001080215
7,74,0,right_cong,1,cong,num_9,num_9,1,0.5106258997693658
7,75,1,left_cong,1,cong,num_7,num_7,1,0.49821639992296696
7,76,2,right_incg,0,incg,num_7,num_7,1,0.583343599922955
7,77,2,right_incg,0,incg,num_7,num_7,1,0.4931479999795556
7,78,3,left_incg,0,incg,num_9,num_9,1,0.45023890025913715
7,79,2,right_incg,0,incg,num_7,num_7,1,0.44350660033524036
7,80,3,left_incg,0,incg,num_9,num_9,1,0.33683669986203313
7,81,2,right_incg,0,incg,num_7,num_7,1,0.532755000051111
7,82,2,right_incg,0,incg,num_7,num_7,1,0.33005330013111234
7,83,3,left_incg,0,incg,num_9,num_9,1,0.4377219998277724
7,84,2,right_incg,0,incg,num_7,num_7,1,0.3485487997531891
7,85,3,left_incg,0,incg,num_9,num_9,1,0.3631980000063777
7,86,1,left_cong,1,cong,num_7,num_7,1,0.3609805000014603
7,87,1,left_cong,1,cong,num_7,num_7,1,0.32317830016836524
7,88,1,left_cong,1,cong,num_7,num_7,1,0.3067813999950886
7,89,1,left_cong,1,cong,num_7,num_7,1,0.26786329969763756
7,90,1,left_cong,1,cong,num_7,num_7,1,0.3606497999280691
7,91,0,right_cong,1,cong,num_9,num_9,1,0.3459195997565985
7,92,0,right_cong,1,cong,num_9,num_9,1,0.3245262000709772
7,93,0,right_cong,1,cong,num_9,num_9,1,0.3254704000428319
7,94,0,right_cong,1,cong,num_9,num_9,1,0.33105479972437024
7,95,0,right_cong,1,cong,num_9,num_9,1,0.48049259977415204
7,96,3,left_incg,0,incg,num_9,num_9,1,0.35311330016702414
7,97,3,left_incg,0,incg,num_9,num_9,1,0.5259434999898076
7,98,3,left_incg,0,incg,num_9,num_9,1,0.3565609999932349
7,99,3,left_incg,0,incg,num_9,num_9,1,0.29278549971058965
7,100,3,left_incg,0,incg,num_9,num_9,1,0.3613031003624201
8,1,1,left_cong,1,cong,num_7,num_7,1,0.3977000997401774
8,2,1,left_cong,1,cong,num_7,num_7,1,0.35306569980457425
8,3,1,left_cong,1,cong,num_7,num_7,1,0.2787027000449598
8,4,1,left_cong,1,cong,num_7,num_7,1,0.27929560001939535
8,5,0,right_cong,1,cong,num_9,num_9,1,0.35244789998978376
8,6,3,left_incg,0,incg,num_9,num_9,1,0.5367101998999715
8,7,2,right_incg,0,incg,num_7,num_7,1,0.36644090013578534
8,8,2,right_incg,0,incg,num_7,num_7,1,0.33259670017287135
8,9,3,left_incg,0,incg,num_9,num_9,1,0.29167480021715164
8,10,2,right_incg,0,incg,num_7,num_7,1,0.3598948996514082
8,11,3,left_incg,0,incg,num_9,num_9,1,0.40030410001054406
8,12,2,right_incg,0,incg,num_7,num_7,1,0.461816499941051
8,13,3,left_incg,0,incg,num_9,num_9,1,0.354186600074172
8,14,2,right_incg,0,incg,num_7,num_7,1,0.322588300332427
8,15,3,left_incg,0,incg,num_9,num_9,1,0.3513245997019112
8,16,0,right_cong,1,cong,num_9,num_9,1,0.43252259958535433
8,17,1,left_cong,1,cong,num_7,num_7,1,0.3569922000169754
8,18,0,right_cong,1,cong,num_9,num_9,1,0.3177940999157727
8,19,1,left_cong,1,cong,num_7,num_7,1,0.29626720026135445
8,20,0,right_cong,1,cong,num_9,num_9,1,0.32548200013116
8,21,2,right_incg,0,incg,num_7,num_7,1,0.4073536000214517
8,22,2,right_incg,0,incg,num_7,num_7,1,0.41262900037690997
8,23,3,left_incg,0,incg,num_9,num_9,1,0.34921920020133257
8,24,3,left_incg,0,incg,num_9,num_7,0,0.4133386998437345
8,25,2,right_incg,0,incg,num_7,num_7,1,0.3754710000939667
8,26,2,right_incg,0,incg,num_7,num_7,1,0.49691550014540553
8,27,2,right_incg,0,incg,num_7,num_7,1,0.30047009978443384
8,28,2,right_incg,0,incg,num_7,num_7,1,0.3077016999013722
8,29,2,right_incg,0,incg,num_7,num_7,1,0.3273851000703871
8,30,3,left_incg,0,incg,num_9,num_9,1,0.4269520998932421
8,31,3,left_incg,0,incg,num_9,num_9,1,0.39976759999990463
8,32,3,left_incg,0,incg,num_9,num_9,1,0.3570221997797489
8,33,3,left_incg,0,incg,num_9,num_9,1,0.40165580017492175
8,34,2,right_incg,0,incg,num_7,num_7,1,0.445268000010401
8,35,3,left_incg,0,incg,num_9,num_9,1,0.4152191001921892
8,36,3,left_incg,0,incg,num_9,num_9,1,0.39080030005425215
8,37,2,right_incg,0,incg,num_7,num_7,1,0.45213699992746115
8,38,3,left_incg,0,incg,num_9,num_9,1,0.37313689989969134
8,39,2,right_incg,0,incg,num_7,num_7,1,0.41413210006430745
8,40,2,right_incg,0,incg,num_7,num_7,1,0.5687915999442339
8,41,1,left_cong,1,cong,num_7,num_7,1,0.3826989997178316
8,42,1,left_cong,1,cong,num_7,num_7,1,0.3694720002822578
8,43,0,right_cong,1,cong,num_9,num_9,1,0.533884999807924
8,44,1,left_cong,1,cong,num_7,num_7,1,0.6039487002417445
8,45,0,right_cong,1,cong,num_9,num_9,1,0.3152953996323049
8,46,2,right_incg,0,incg,num_7,num_9,0,0.5330523997545242
8,47,3,left_incg,0,incg,num_9,num_7,0,0.30188880022615194
8,48,3,left_incg,0,incg,num_9,num_9,1,0.28708579996600747
8,49,3,left_incg,0,incg,num_9,num_7,0,0.35355820041149855
8,50,3,left_incg,0,incg,num_9,num_7,0,0.4177041999064386
8,51,3,left_incg,0,incg,num_9,num_9,1,0.39858780009672046
8,52,3,left_incg,0,incg,num_9,num_9,1,0.33023180020973086
8,53,2,right_incg,0,incg,num_7,num_9,0,0.2887277998961508
8,54,3,left_incg,0,incg,num_9,num_9,1,0.4095949996262789
8,55,2,right_incg,0,incg,num_7,num_7,1,0.31271269964054227
8,56,0,right_cong,1,cong,num_9,num_9,1,0.32410410000011325
8,57,1,left_cong,1,cong,num_7,num_7,1,0.278868299908936
8,58,1,left_cong,1,cong,num_7,num_7,1,0.391469799913466
8,59,1,left_cong,1,cong,num_7,num_7,1,0.29483400005847216
8,60,0,right_cong,1,cong,num_9,num_9,1,0.3379732999019325
8,61,1,left_cong,1,cong,num_7,num_7,1,0.35725060012191534
8,62,0,right_cong,1,cong,num_9,num_9,1,0.3134005996398628
8,63,1,left_cong,1,cong,num_7,num_7,1,0.32526160031557083
8,64,1,left_cong,1,cong,num_7,num_9,0,0.2248236001469195
8,65,0,right_cong,1,cong,num_9,num_9,1,0.2638190002180636
8,66,2,right_incg,0,incg,num_7,num_7,1,0.39678880013525486
8,67,3,left_incg,0,incg,num_9,num_9,1,0.3792043998837471
8,68,3,left_incg,0,incg,num_9,num_7,0,0.255052899941802
8,69,3,left_incg,0,incg,num_9,num_9,1,0.3885635999031365
8,70,3,left_incg,0,incg,num_9,num_9,1,0.38069629995152354
8,71,2,right_incg,0,incg,num_7,num_7,1,0.5199593999423087
8,72,3,left_incg,0,incg,num_9,num_9,1,0.39184829965233803
8,73,2,right_incg,0,incg,num_7,num_7,1,0.42011319985613227
8,74,2,right_incg,0,incg,num_7,num_9,0,0.3010219996795058
8,75,3,left_incg,0,incg,num_9,num_9,1,0.3442921000532806
8,76,2,right_incg,0,incg,num_7,num_7,1,0.5246863998472691
8,77,2,right_incg,0,incg,num_7,num_7,1,0.33648479962721467
8,78,3,left_incg,0,incg,num_9,num_9,1,0.36217729980126023
8,79,3,left_incg,0,incg,num_9,num_9,1,0.3367010001093149
8,80,3,left_incg,0,incg,num_9,num_9,1,0.3799928002990782
8,81,2,right_incg,0,incg,num_7,num_7,1,0.5432596001774073
8,82,3,left_incg,0,incg,num_9,num_9,1,0.34601510036736727
8,83,2,right_incg,0,incg,num_7,num_7,1,0.3221501996740699
8,84,3,left_incg,0,incg,num_9,num_9,1,0.3587183002382517
8,85,3,left_incg,0,incg,num_9,num_9,1,0.34109910018742085
8,86,1,left_cong,1,cong,num_7,num_7,1,0.35056080017238855
8,87,1,left_cong,1,cong,num_7,num_7,1,0.2948672999627888
8,88,1,left_cong,1,cong,num_7,num_7,1,0.25894090021029115
8,89,0,right_cong,1,cong,num_9,num_9,1,0.28315909998491406
8,90,0,right_cong,1,cong,num_9,num_9,1,0.2987071997486055
8,91,0,right_cong,1,cong,num_9,num_9,1,0.3862240999005735
8,92,0,right_cong,1,cong,num_9,num_9,1,0.27529630018398166
8,93,0,right_cong,1,cong,num_9,num_9,1,0.3068301002494991
8,94,0,right_cong,1,cong,num_9,num_9,1,0.3287275000475347
8,95,0,right_cong,1,cong,num_9,num_9,1,0.3582533001899719
8,96,2,right_incg,0,incg,num_7,num_7,1,0.37222590018063784
8,97,2,right_incg,0,incg,num_7,num_9,0,0.2931552999652922
8,98,2,right_incg,0,incg,num_7,num_7,1,0.3541107000783086
8,99,3,left_incg,0,incg,num_9,num_9,1,0.4323607999831438
8,100,2,right_incg,0,incg,num_7,num_7,1,0.3880592999048531
9,1,3,left_incg,0,incg,num_9,num_9,1,0.42562260013073683
9,2,2,right_incg,0,incg,num_7,num_7,1,0.33449869975447655
9,3,3,left_incg,0,incg,num_9,num_9,1,0.2673073001205921
9,4,2,right_incg,0,incg,num_7,num_7,1,0.4090080000460148
9,5,3,left_incg,0,incg,num_9,num_7,0,0.2871134001761675
9,6,3,left_incg,0,incg,num_9,num_9,1,0.3764944998547435
9,7,3,left_incg,0,incg,num_9,num_9,1,0.3450434999540448
9,8,3,left_incg,0,incg,num_9,num_9,1,0.2850460996851325
9,9,3,left_incg,0,incg,num_9,num_9,1,0.3724062000401318
9,10,3,left_incg,0,incg,num_9,num_9,1,0.3457797998562455
9,11,1,left_cong,1,cong,num_7,num_7,1,0.46219349978491664
9,12,1,left_cong,1,cong,num_7,num_7,1,0.5068957000039518
9,13,0,right_cong,1,cong,num_9,num_9,1,0.2951349001377821
9,14,1,left_cong,1,cong,num_7,num_7,1,0.36810210021212697
9,15,0,right_cong,1,cong,num_9,num_9,1,0.2641051998361945
9,16,0,right_cong,1,cong,num_9,num_9,1,0.37079109996557236
9,17,1,left_cong,1,cong,num_7,num_7,1,0.2980137001723051
9,18,1,left_cong,1,cong,num_7,num_7,1,0.5627355999313295
9,19,1,left_cong,1,cong,num_7,num_7,1,0.31587779987603426
9,20,1,left_cong,1,cong,num_7,num_7,1,0.3462517997249961
9,21,3,left_incg,0,incg,num_9,num_9,1,0.35185830015689135
9,22,2,right_incg,0,incg,num_7,num_9,0,0.32924049999564886
9,23,3,left_incg,0,incg,num_9,num_9,1,0.400590100325644
9,24,3,left_incg,0,incg,num_9,num_9,1,0.30603859992697835
9,25,2,right_incg,0,incg,num_7,num_7,1,0.3904451001435518
9,26,2,right_incg,0,incg,num_7,num_7,1,0.3340936000458896
9,27,2,right_incg,0,incg,num_7,num_7,1,0.4170805998146534
9,28,2,right_incg,0,incg,num_7,num_7,1,0.3556607998907566
9,29,3,left_incg,0,incg,num_9,num_9,1,0.3576110997237265
9,30,3,left_incg,0,incg,num_9,num_9,1,0.28543510008603334
9,31,1,left_cong,1,cong,num_7,num_7,1,0.38037029979750514
9,32,0,right_cong,1,cong,num_9,num_9,1,0.34332400001585484
9,33,1,left_cong,1,cong,num_7,num_7,1,0.34971410036087036
9,34,0,right_cong,1,cong,num_9,num_9,1,0.2772323000244796
9,35,1,left_cong,1,cong,num_7,num_7,1,0.35054100025445223
9,36,3,left_incg,0,incg,num_9,num_7,0,0.4975749999284744
9,37,3,left_incg,0,incg,num_9,num_9,1,0.4357092999853194
9,38,3,left_incg,0,incg,num_9,num_9,1,0.2817409001290798
9,39,3,left_incg,0,incg,num_9,num_9,1,0.2785128001123667
9,40,2,right_incg,0,incg,num_7,num_7,1,0.29722859989851713
9,41,0,right_cong,1,cong,num_9,num_9,1,0.519225699827075
9,42,0,right_cong,1,cong,num_9,num_9,1,0.2941872999072075
9,43,1,left_cong,1,cong,num_7,num_9,0,0.2498354003764689
9,44,0,right_cong,1,cong,num_9,num_9,1,0.35800709994509816
9,45,0,right_cong,1,cong,num_9,num_9,1,0.3362147002480924
9,46,1,left_cong,1,cong,num_7,num_7,1,0.37176499981433153
9,47,0,right_cong,1,cong,num_9,num_9,1,0.28147519985213876
9,48,1,left_cong,1,cong,num_7,num_7,1,0.30056989984586835
9,49,0,right_cong,1,cong,num_9,num_9,1,0.24862550012767315
9,50,1,left_cong,1,cong,num_7,num_7,1,0.25738139962777495
9,51,2,right_incg,0,incg,num_7,num_7,1,0.4486398999579251
9,52,2,right_incg,0,incg,num_7,num_9,0,0.2728943000547588
9,53,2,right_incg,0,incg,num_7,num_9,0,0.46054150024428964
9,54,3,left_incg,0,incg,num_9,num_9,1,0.38675509998574853
9,55,2,right_incg,0,incg,num_7,num_7,1,0.32348179956898093
9,56,1,left_cong,1,cong,num_7,num_7,1,0.3435362000018358
9,57,0,right_cong,1,cong,num_9,num_9,1,0.26275499956682324
9,58,1,left_cong,1,cong,num_7,num_7,1,0.37331190006807446
9,59,1,left_cong,1,cong,num_7,num_7,1,0.4829535000026226
9,60,0,right_cong,1,cong,num_9,num_9,1,0.26682480005547404
9,61,1,left_cong,1,cong,num_7,num_7,1,0.3288226001895964
9,62,1,left_cong,1,cong,num_7,num_7,1,0.26596170011907816
9,63,0,right_cong,1,cong,num_9,num_9,1,0.3754171999171376
9,64,0,right_cong,1,cong,num_9,num_9,1,0.34081669989973307
9,65,1,left_cong,1,cong,num_7,num_7,1,0.3105863002128899
9,66,3,left_incg,0,incg,num_9,num_9,1,0.6173823997378349
9,67,3,left_incg,0,incg,num_9,num_9,1,0.3013948001898825
9,68,2,right_incg,0,incg,num_7,num_7,1,0.3451610002666712
9,69,2,right_incg,0,incg,num_7,num_7,1,0.33123219991102815
9,70,2,right_incg,0,incg,num_7,num_7,1,0.3424685001373291
9,71,0,right_cong,1,cong,num_9,num_9,1,0.30271600000560284
9,72,0,right_cong,1,cong,num_9,num_9,1,0.435285999905318
9,73,0,right_cong,1,cong,num_9,num_9,1,0.2692708997055888
9,74,0,right_cong,1,cong,num_9,num_9,1,0.28165070014074445
9,75,1,left_cong,1,cong,num_7,num_9,0,0.28691310016438365
9,76,0,right_cong,1,cong,num_9,num_9,1,0.34444470005109906
9,77,1,left_cong,1,cong,num_7,num_7,1,0.338697100058198
9,78,1,left_cong,1,cong,num_7,num_7,1,0.399896000046283
9,79,0,right_cong,1,cong,num_9,num_9,1,0.35941579984501004
9,80,1,left_cong,1,cong,num_7,num_7,1,0.26943370001390576
9,81,1,left_cong,1,cong,num_7,num_7,1,0.3441345002502203
9,82,0,right_cong,1,cong,num_9,num_9,1,0.3570709996856749
9,83,0,right_cong,1,cong,num_9,num_9,1,0.33810200029984117
9,84,1,left_cong,1,cong,num_7,num_7,1,0.34598679980263114
9,85,1,left_cong,1,cong,num_7,num_7,1,0.2805379000492394
9,86,3,left_incg,0,incg,num_9,num_9,1,0.4510650001466274
9,87,2,right_incg,0,incg,num_7,num_7,1,0.3716154000721872
9,88,3,left_incg,0,incg,num_9,num_9,1,0.3860112000256777
9,89,3,left_incg,0,incg,num_9,num_9,1,0.40650960011407733
9,90,2,right_incg,0,incg,num_7,num_7,1,0.44152599992230535
9,91,1,left_cong,1,cong,num_7,num_7,1,0.360413100104779
9,92,1,left_cong,1,cong,num_7,num_7,1,0.3500588000752032
9,93,0,right_cong,1,cong,num_9,num_9,1,0.4221370997838676
9,94,0,right_cong,1,cong,num_9,num_9,1,0.34835619991645217
9,95,0,right_cong,1,cong,num_9,num_9,1,0.31093169981613755
9,96,0,right_cong,1,cong,num_9,num_9,1,0.4347767997533083
9,97,1,left_cong,1,cong,num_7,num_7,1,0.3661720003001392
9,98,1,left_cong,1,cong,num_7,num_7,1,0.3032547999173403
9,99,1,left_cong,1,cong,num_7,num_7,1,0.3456951999105513
9,100,0,right_cong,1,cong,num_9,num_7,0,0.27947530010715127
10,1,3,left_incg,0,incg,num_9,num_9,1,0.3788034999743104
10,2,2,right_incg,0,incg,num_7,num_7,1,0.31112350011244416
10,3,2,right_incg,0,incg,num_7,num_7,1,0.37435710011050105
10,4,3,left_incg,0,incg,num_9,num_9,1,0.33994630025699735
10,5,3,left_incg,0,incg,num_9,num_9,1,0.3019498996436596
10,6,2,right_incg,0,incg,num_7,num_7,1,0.3184203002601862
10,7,2,right_incg,0,incg,num_7,num_7,1,0.2830236000008881
10,8,3,left_incg,0,incg,num_9,num_9,1,0.3066035001538694
10,9,3,left_incg,0,incg,num_9,num_9,1,0.268889999948442
10,10,3,left_incg,0,incg,num_9,num_9,1,0.3339909999631345
10,11,0,right_cong,1,cong,num_9,num_9,1,0.3162106000818312
10,12,1,left_cong,1,cong,num_7,num_7,1,0.3638294003903866
10,13,1,left_cong,1,cong,num_7,num_7,1,0.42164949979633093
10,14,0,right_cong,1,cong,num_9,num_9,1,0.38078989973291755
10,15,0,right_cong,1,cong,num_9,num_9,1,0.3598792999982834
10,16,0,right_cong,1,cong,num_9,num_9,1,0.35182560002431273
10,17,0,right_cong,1,cong,num_9,num_9,1,0.4029009002260864
10,18,0,right_cong,1,cong,num_9,num_9,1,0.3045981000177562
10,19,0,right_cong,1,cong,num_9,num_9,1,0.3209087001159787
10,20,0,right_cong,1,cong,num_9,num_9,1,0.3849500003270805
10,21,0,right_cong,1,cong,num_9,num_9,1,0.3691720999777317
10,22,0,right_cong,1,cong,num_9,num_9,1,0.3484304999001324
10,23,1,left_cong,1,cong,num_7,num_7,1,0.3837414998561144
10,24,1,left_cong,1,cong,num_7,num_7,1,0.29747769981622696
10,25,1,left_cong,1,cong,num_7,num_7,1,0.2919108998030424
10,26,0,right_cong,1,cong,num_9,num_9,1,0.31971010006964207
10,27,0,right_cong,1,cong,num_9,num_9,1,0.34651360008865595
10,28,0,right_cong,1,cong,num_9,num_9,1,0.3275707997381687
10,29,0,right_cong,1,cong,num_9,num_9,1,0.2956964997574687
10,30,0,right_cong,1,cong,num_9,num_9,1,0.3312443997710943
10,31,3,left_incg,0,incg,num_9,num_9,1,0.3985385000705719
10,32,2,right_incg,0,incg,num_7,num_7,1,0.4148701000958681
10,33,3,left_incg,0,incg,num_9,num_9,1,0.4472791999578476
10,34,2,right_incg,0,incg,num_7,num_7,1,0.3077945001423359
10,35,2,right_incg,0,incg,num_7,num_7,1,0.4534249999560416
10,36,3,left_incg,0,incg,num_9,num_9,1,0.5108620999380946
10,37,3,left_incg,0,incg,num_9,num_9,1,0.4196673999540508
10,38,3,left_incg,0,incg,num_9,num_9,1,0.34005700005218387
10,39,2,right_incg,0,incg,num_7,num_7,1,0.424131500069052
10,40,2,right_incg,0,incg,num_7,num_7,1,0.32592729991301894
10,41,1,left_cong,1,cong,num_7,num_7,1,0.4125630999915302
10,42,0,right_cong,1,cong,num_9,num_9,1,0.28895580023527145
10,43,1,left_cong,1,cong,num_7,num_7,1,0.41972439968958497
10,44,1,left_cong,1,cong,num_7,num_7,1,0.35715309996157885
10,45,1,left_cong,1,cong,num_7,num_7,1,0.36055499967187643
10,46,1,left_cong,1,cong,num_7,num_7,1,0.3722019996494055
10,47,1,left_cong,1,cong,num_7,num_7,1,0.3104093000292778
10,48,1,left_cong,1,cong,num_7,num_7,1,0.41767820017412305
10,49,1,left_cong,1,cong,num_7,num_7,1,0.3632291001267731
10,50,0,right_cong,1,cong,num_9,num_9,1,0.3818383002653718
10,51,1,left_cong,1,cong,num_7,num_7,1,0.29005399998277426
10,52,0,right_cong,1,cong,num_9,num_9,1,0.29941549990326166
10,53,0,right_cong,1,cong,num_9,num_9,1,0.43767830030992627
10,54,0,right_cong,1,cong,num_9,num_9,1,0.3991066999733448
10,55,0,right_cong,1,cong,num_9,num_9,1,0.25832820031791925
10,56,0,right_cong,1,cong,num_9,num_9,1,0.418355000205338
10,57,1,left_cong,1,cong,num_7,num_7,1,0.40589069994166493
10,58,0,right_cong,1,cong,num_9,num_9,1,0.23666119994595647
10,59,0,right_cong,1,cong,num_9,num_9,1,0.34234789991751313
10,60,1,left_cong,1,cong,num_7,num_7,1,0.3925769003108144
10,61,2,right_incg,0,incg,num_7,num_7,1,0.43891069991514087
10,62,3,left_incg,0,incg,num_9,num_9,1,0.4192924997769296
10,63,2,right_incg,0,incg,num_7,num_7,1,0.3141999999061227
10,64,2,right_incg,0,incg,num_7,num_7,1,0.3877410995773971
10,65,2,right_incg,0,incg,num_7,num_7,1,0.4027970000170171
10,66,1,left_cong,1,cong,num_7,num_7,1,0.419367800001055
10,67,0,right_cong,1,cong,num_9,num_9,1,0.29333580005913973
10,68,0,right_cong,1,cong,num_9,num_9,1,0.36473269993439317
10,69,0,right_cong,1,cong,num_9,num_9,1,0.31771080009639263
10,70,1,left_cong,1,cong,num_7,num_7,1,0.3463364001363516
10,71,3,left_incg,0,incg,num_9,num_9,1,0.3898503999225795
10,72,2,right_incg,0,incg,num_7,num_7,1,0.2773373001255095
10,73,3,left_incg,0,incg,num_9,num_9,1,0.33946039993315935
10,74,3,left_incg,0,incg,num_9,num_9,1,0.4749503000639379
10,75,3,left_incg,0,incg,num_9,num_9,1,0.411304899957031
10,76,1,left_cong,1,cong,num_7,num_7,1,0.40330159990116954
10,77,0,right_cong,1,cong,num_9,num_9,1,0.3624387001618743
10,78,1,left_cong,1,cong,num_7,num_7,1,0.2478481000289321
10,79,1,left_cong,1,cong,num_7,num_9,0,0.2538803997449577
10,80,1,left_cong,1,cong,num_7,num_7,1,0.43788659991696477
10,81,0,right_cong,1,cong,num_9,num_9,1,0.32056540017947555
10,82,0,right_cong,1,cong,num_9,num_9,1,0.3309749001637101
10,83,0,right_cong,1,cong,num_9,num_9,1,0.2744499002583325
10,84,0,right_cong,1,cong,num_9,num_9,1,0.33956959983333945
10,85,1,left_cong,1,cong,num_7,num_9,0,0.3810939001850784
10,86,1,left_cong,1,cong,num_7,num_7,1,0.34562169993296266
10,87,0,right_cong,1,cong,num_9,num_9,1,0.29017870035022497
10,88,1,left_cong,1,cong,num_7,num_7,1,0.24852010002359748
10,89,0,right_cong,1,cong,num_9,num_9,1,0.2558100000023842
10,90,0,right_cong,1,cong,num_9,num_7,0,0.24579230044037104
10,91,3,left_incg,0,incg,num_9,num_9,1,0.4470038996078074
10,92,3,left_incg,0,incg,num_9,num_9,1,0.4074664004147053
10,93,3,left_incg,0,incg,num_9,num_9,1,0.32200449984520674
10,94,2,right_incg,0,incg,num_7,num_7,1,0.4338915999978781
10,95,3,left_incg,0,incg,num_9,num_9,1,0.3591132997535169
10,96,0,right_cong,1,cong,num_9,num_9,1,0.3072782000526786
10,97,0,right_cong,1,cong,num_9,num_9,1,0.28963680006563663
10,98,1,left_cong,1,cong,num_7,num_7,1,0.2500340002588928
10,99,0,right_cong,1,cong,num_9,num_9,1,0.35985370026901364
10,100,0,right_cong,1,cong,num_9,num_9,1,0.3823904003947973
