block,trial,trialtype,trialtype_string,cuetype,cuetype_string,correct_key,key_pressed,is_resp_corr,reaction_time
1,1,0,right_cong,1,cong,num_9,num_9,1,0.37673630006611347
1,2,1,left_cong,1,cong,num_7,num_7,1,0.35539909987710416
1,3,0,right_cong,1,cong,num_9,num_9,1,0.3589755999855697
1,4,0,right_cong,1,cong,num_9,num_9,1,0.43371750018559396
1,5,1,left_cong,1,cong,num_7,num_7,1,0.39595390018075705
1,6,3,left_incg,0,incg,num_9,num_9,1,0.5165870999917388
1,7,3,left_incg,0,incg,num_9,num_9,1,0.6368877000641078
1,8,3,left_incg,0,incg,num_9,num_9,1,0.49382400000467896
1,9,3,left_incg,0,incg,num_9,num_9,1,0.40002969978377223
1,10,3,left_incg,0,incg,num_9,num_9,1,0.46359520009718835
1,11,2,right_incg,0,incg,num_7,num_7,1,0.6332060999702662
1,12,3,left_incg,0,incg,num_9,num_9,1,0.42898140009492636
1,13,2,right_incg,0,incg,num_7,num_7,1,0.3265766999684274
1,14,3,left_incg,0,incg,num_9,num_9,1,0.40263500018045306
1,15,3,left_incg,0,incg,num_9,num_9,1,0.45628669997677207
1,16,2,right_incg,0,incg,num_7,num_7,1,0.37187710008583963
1,17,3,left_incg,0,incg,num_9,num_9,1,0.38956769998185337
1,18,2,right_incg,0,incg,num_7,num_7,1,0.35796339996159077
1,19,3,left_incg,0,incg,num_9,num_9,1,0.39792100014165044
1,20,3,left_incg,0,incg,num_9,num_9,1,0.377238400047645
1,21,1,left_cong,1,cong,num_7,num_7,1,0.331741200061515
1,22,0,right_cong,1,cong,num_9,num_9,1,0.25567719992250204
1,23,1,left_cong,1,cong,num_7,num_7,1,0.3217150999698788
1,24,1,left_cong,1,cong,num_7,num_7,1,0.4126301999203861
1,25,0,right_cong,1,cong,num_9,num_9,1,0.3119185999967158
1,26,3,left_incg,0,incg,num_9,num_9,1,0.4673429001122713
1,27,3,left_incg,0,incg,num_9,num_9,1,0.44021299993619323
1,28,3,left_incg,0,incg,num_9,num_9,1,0.3556505001615733
1,29,3,left_incg,0,incg,num_9,num_9,1,0.6749631001148373
1,30,3,left_incg,0,incg,num_9,num_9,1,0.4813833001535386
1,31,2,right_incg,0,incg,num_7,num_7,1,0.51424890011549
1,32,3,left_incg,0,incg,num_9,num_9,1,0.40984059986658394
1,33,2,right_incg,0,incg,num_7,num_7,1,0.4694921998307109
1,34,3,left_incg,0,incg,num_9,num_9,1,0.31119609996676445
1,35,2,right_incg,0,incg,num_7,num_7,1,0.3715564999729395
1,36,3,left_incg,0,incg,num_9,num_9,1,0.3810533001087606
1,37,3,left_incg,0,incg,num_9,num_9,1,0.42387209995649755
1,38,2,right_incg,0,incg,num_7,num_7,1,0.3827596998307854
1,39,2,right_incg,0,incg,num_7,num_7,1,0.4299064001534134
1,40,2,right_incg,0,incg,num_7,num_7,1,0.38271829998120666
1,41,1,left_cong,1,cong,num_7,num_7,1,0.39656480005942285
1,42,0,right_cong,1,cong,num_9,num_9,1,0.3123442002106458
1,43,1,left_cong,1,cong,num_7,num_7,1,0.35537220002152026
1,44,0,right_cong,1,cong,num_9,num_9,1,0.32209679996594787
1,45,1,left_cong,1,cong,num_7,num_7,1,0.31572790001519024
1,46,0,right_cong,1,cong,num_9,num_9,1,0.4164024998899549
1,47,1,left_cong,1,cong,num_7,num_7,1,0.24995899992063642
1,48,1,left_cong,1,cong,num_7,num_7,1,0.38212189986370504
1,49,1,left_cong,1,cong,num_7,num_7,1,0.31866850005462766
1,50,1,left_cong,1,cong,num_7,num_7,1,0.3181127000134438
1,51,1,left_cong,1,cong,num_7,num_7,1,0.41585240000858903
1,52,1,left_cong,1,cong,num_7,num_7,1,0.2914291999768466
1,53,0,right_cong,1,cong,num_9,num_9,1,0.284597699996084
1,54,1,left_cong,1,cong,num_7,num_7,1,0.2885952000506222
1,55,1,left_cong,1,cong,num_7,num_7,1,0.31150210020132363
1,56,0,right_cong,1,cong,num_9,num_9,1,0.3608210999518633
1,57,1,left_cong,1,cong,num_7,num_7,1,0.28299440001137555
1,58,0,right_cong,1,cong,num_9,num_9,1,0.30668130004778504
1,59,0,right_cong,1,cong,num_9,num_7,0,0.24863100005313754
1,60,0,right_cong,1,cong,num_9,num_9,1,0.3941784999333322
1,61,3,left_incg,0,incg,num_9,num_9,1,0.5667051000054926
1,62,3,left_incg,0,incg,num_9,num_9,1,0.45666869985871017
1,63,3,left_incg,0,incg,num_9,num_9,1,0.42861109995283186
1,64,2,right_incg,0,incg,num_7,num_7,1,0.510164299979806
1,65,3,left_incg,0,incg,num_9,num_9,1,0.37514800019562244
1,66,1,left_cong,1,cong,num_7,num_7,1,0.5414627999998629
1,67,1,left_cong,1,cong,num_7,num_7,1,0.3879732000641525
1,68,1,left_cong,1,cong,num_7,num_7,1,0.4389329000841826
1,69,1,left_cong,1,cong,num_7,num_7,1,0.500072400085628
1,70,0,right_cong,1,cong,num_9,num_9,1,0.4467680000234395
1,71,0,right_cong,1,cong,num_9,num_9,1,0.44004069990478456
1,72,0,right_cong,1,cong,num_9,num_9,1,0.3819390998687595
1,73,1,left_cong,1,cong,num_7,num_7,1,0.41862799995578825
1,74,1,left_cong,1,cong,num_7,num_7,1,0.35673559992574155
1,75,0,right_cong,1,cong,num_9,num_9,1,0.362310899887234
1,76,1,left_cong,1,cong,num_7,num_7,1,0.5002512000501156
1,77,0,right_cong,1,cong,num_9,num_9,1,0.336250799940899
1,78,1,left_cong,1,cong,num_7,num_7,1,0.34705430013127625
1,79,1,left_cong,1,cong,num_7,num_7,1,0.3756432000081986
1,80,1,left_cong,1,cong,num_7,num_7,1,0.3511244000401348
1,81,3,left_incg,0,incg,num_9,num_9,1,0.3744056997820735
1,82,3,left_incg,0,incg,num_9,num_9,1,0.3295270998496562
1,83,2,right_incg,0,incg,num_7,num_7,1,0.375283399829641
1,84,3,left_incg,0,incg,num_9,num_9,1,0.3752301998902112
1,85,3,left_incg,0,incg,num_9,num_9,1,0.4203331000171602
1,86,1,left_cong,1,cong,num_7,num_7,1,0.39320529997348785
1,87,1,left_cong,1,cong,num_7,num_7,1,0.3515663000289351
1,88,1,left_cong,1,cong,num_7,num_7,1,0.38573229988105595
1,89,0,right_cong,1,cong,num_9,num_9,1,0.36367359990254045
1,90,0,right_cong,1,cong,num_9,num_9,1,0.3240351998247206
1,91,2,right_incg,0,incg,num_7,num_7,1,0.41571900015696883
1,92,3,left_incg,0,incg,num_9,num_9,1,0.3950573999900371
1,93,3,left_incg,0,incg,num_9,num_9,1,0.34020929993130267
1,94,2,right_incg,0,incg,num_7,num_7,1,0.33472179993987083
1,95,3,left_incg,0,incg,num_9,num_9,1,0.4570605999324471
1,96,2,right_incg,0,incg,num_7,num_7,1,0.40156050003133714
1,97,2,right_incg,0,incg,num_7,num_7,1,0.4819076000712812
1,98,3,left_incg,0,incg,num_9,num_9,1,0.39293619990348816
1,99,2,right_incg,0,incg,num_7,num_7,1,0.41522379987873137
1,100,2,right_incg,0,incg,num_7,num_7,1,0.4561570999212563
2,1,0,right_cong,1,cong,num_9,num_9,1,0.3626796000171453
2,2,0,right_cong,1,cong,num_9,num_9,1,0.35643630009144545
2,3,0,right_cong,1,cong,num_9,num_9,1,0.3671246999874711
2,4,1,left_cong,1,cong,num_7,num_7,1,0.3812025999650359
2,5,1,left_cong,1,cong,num_7,num_7,1,0.35250239982269704
2,6,3,left_incg,0,incg,num_9,num_9,1,0.42617459991015494
2,7,3,left_incg,0,incg,num_9,num_9,1,0.3682931999210268
2,8,3,left_incg,0,incg,num_9,num_9,1,0.3675493998453021
2,9,3,left_incg,0,incg,num_9,num_9,1,0.3462771999184042
2,10,2,right_incg,0,incg,num_7,num_7,1,0.37841699994169176
2,11,0,right_cong,1,cong,num_9,num_9,1,0.4222331000491977
2,12,1,left_cong,1,cong,num_7,num_7,1,0.28696559998206794
2,13,1,left_cong,1,cong,num_7,num_7,1,0.32709249993786216
2,14,0,right_cong,1,cong,num_9,num_9,1,0.3198052002117038
2,15,1,left_cong,1,cong,num_7,num_7,1,0.27555430005304515
2,16,3,left_incg,0,incg,num_9,num_9,1,0.44905350008048117
2,17,2,right_incg,0,incg,num_7,num_7,1,0.41319260001182556
2,18,2,right_incg,0,incg,num_7,num_7,1,0.3972952999174595
2,19,2,right_incg,0,incg,num_7,num_7,1,0.33293050015345216
2,20,2,right_incg,0,incg,num_7,num_7,1,0.317429699935019
2,21,1,left_cong,1,cong,num_7,num_7,1,0.3812436000443995
2,22,1,left_cong,1,cong,num_7,num_7,1,0.3788574000354856
2,23,0,right_cong,1,cong,num_9,num_9,1,0.3094134998973459
2,24,0,right_cong,1,cong,num_9,num_9,1,0.379343600012362
2,25,1,left_cong,1,cong,num_7,num_7,1,0.2949957998935133
2,26,3,left_incg,0,incg,num_9,num_9,1,0.6828018000815064
2,27,3,left_incg,0,incg,num_9,num_9,1,0.4444953000638634
2,28,3,left_incg,0,incg,num_9,num_9,1,0.40657130000181496
2,29,3,left_incg,0,incg,num_9,num_9,1,0.38084220001474023
2,30,3,left_incg,0,incg,num_9,num_9,1,0.340274800080806
2,31,2,right_incg,0,incg,num_7,num_7,1,0.44279270013794303
2,32,3,left_incg,0,incg,num_9,num_9,1,0.3194393999874592
2,33,2,right_incg,0,incg,num_7,num_7,1,0.35787149984389544
2,34,3,left_incg,0,incg,num_9,num_9,1,0.36593930004164577
2,35,2,right_incg,0,incg,num_7,num_7,1,0.4364147000014782
2,36,0,right_cong,1,cong,num_9,num_9,1,0.5013875998556614
2,37,1,left_cong,1,cong,num_7,num_7,1,0.3141487000975758
2,38,0,right_cong,1,cong,num_9,num_9,1,0.3098677999805659
2,39,0,right_cong,1,cong,num_9,num_9,1,0.40199899999424815
2,40,1,left_cong,1,cong,num_7,num_7,1,0.3585381000302732
2,41,0,right_cong,1,cong,num_9,num_9,1,0.3920408000703901
2,42,0,right_cong,1,cong,num_9,num_9,1,0.4366484999191016
2,43,1,left_cong,1,cong,num_7,num_7,1,0.3472736000549048
2,44,0,right_cong,1,cong,num_9,num_9,1,0.37345019984059036
2,45,0,right_cong,1,cong,num_9,num_9,1,0.4593128999695182
2,46,0,right_cong,1,cong,num_9,num_9,1,0.42998740007169545
2,47,0,right_cong,1,cong,num_9,num_9,1,0.37504520011134446
2,48,1,left_cong,1,cong,num_7,num_7,1,0.3939886998850852
2,49,0,right_cong,1,cong,num_9,num_9,1,0.37496340018697083
2,50,1,left_cong,1,cong,num_7,num_7,1,0.35170089988969266
2,51,2,right_incg,0,incg,num_7,num_9,0,0.5173170999623835
2,52,2,right_incg,0,incg,num_7,num_7,1,0.528470000019297
2,53,2,right_incg,0,incg,num_7,num_7,1,0.48552770004607737
2,54,2,right_incg,0,incg,num_7,num_7,1,0.37516860011965036
2,55,2,right_incg,0,incg,num_7,num_7,1,0.468537800014019
2,56,2,right_incg,0,incg,num_7,num_7,1,1.0002940001431853
2,57,2,right_incg,0,incg,num_7,num_7,1,0.3923817998729646
2,58,3,left_incg,0,incg,num_9,num_9,1,0.4088880999479443
2,59,3,left_incg,0,incg,num_9,num_9,1,0.396440900163725
2,60,2,right_incg,0,incg,num_7,num_7,1,0.3618626999668777
2,61,2,right_incg,0,incg,num_7,num_7,1,0.37358859996311367
2,62,3,left_incg,0,incg,num_9,num_9,1,0.3315067000221461
2,63,2,right_incg,0,incg,num_7,num_7,1,0.3799107000231743
2,64,2,right_incg,0,incg,num_7,num_7,1,0.5631170999258757
2,65,3,left_incg,0,incg,num_9,num_9,1,0.43997210008092225
2,66,0,right_cong,1,cong,num_9,num_9,1,0.40064499992877245
2,67,0,right_cong,1,cong,num_9,num_9,1,0.3791781000327319
2,68,1,left_cong,1,cong,num_7,num_7,1,0.35469169984571636
2,69,0,right_cong,1,cong,num_9,num_9,1,0.4808702999725938
2,70,1,left_cong,1,cong,num_7,num_7,1,0.34943940001539886
2,71,0,right_cong,1,cong,num_9,num_9,1,0.40823590010404587
2,72,0,right_cong,1,cong,num_9,num_9,1,0.35220799990929663
2,73,0,right_cong,1,cong,num_9,num_9,1,0.4122793998103589
2,74,0,right_cong,1,cong,num_9,num_9,1,0.3694804001133889
2,75,0,right_cong,1,cong,num_9,num_9,1,0.4519490997772664
2,76,1,left_cong,1,cong,num_7,num_7,1,0.37658199993893504
2,77,1,left_cong,1,cong,num_7,num_7,1,0.35169559996575117
2,78,0,right_cong,1,cong,num_9,num_9,1,0.40843630000017583
2,79,0,right_cong,1,cong,num_9,num_9,1,0.40857620001770556
2,80,1,left_cong,1,cong,num_7,num_7,1,0.3350112000480294
2,81,1,left_cong,1,cong,num_7,num_7,1,0.4321370997931808
2,82,0,right_cong,1,cong,num_9,num_9,1,0.3698539000470191
2,83,1,left_cong,1,cong,num_7,num_7,1,0.37673580017872155
2,84,1,left_cong,1,cong,num_7,num_7,1,0.38509570015594363
2,85,1,left_cong,1,cong,num_7,num_7,1,0.34339069994166493
2,86,3,left_incg,0,incg,num_9,num_9,1,0.44831310003064573
2,87,2,right_incg,0,incg,num_7,num_7,1,0.36825990001671016
2,88,2,right_incg,0,incg,num_7,num_7,1,0.425988300004974
2,89,2,right_incg,0,incg,num_7,num_7,1,0.45309649989940226
2,90,2,right_incg,0,incg,num_7,num_7,1,0.384978000074625
2,91,1,left_cong,1,cong,num_7,num_7,1,0.43441380001604557
2,92,1,left_cong,1,cong,num_7,num_7,1,0.4955543999094516
2,93,1,left_cong,1,cong,num_7,num_7,1,0.38600369985215366
2,94,1,left_cong,1,cong,num_7,num_7,1,0.3669856998603791
2,95,1,left_cong,1,cong,num_7,num_7,1,0.4969113999977708
2,96,0,right_cong,1,cong,num_9,num_9,1,0.40787120000459254
2,97,1,left_cong,1,cong,num_7,num_7,1,0.4201485998928547
2,98,1,left_cong,1,cong,num_7,num_7,1,0.3904188999440521
2,99,0,right_cong,1,cong,num_9,num_9,1,0.4559440999291837
2,100,1,left_cong,1,cong,num_7,num_7,1,0.4347635998856276
3,1,0,right_cong,1,cong,num_9,num_9,1,0.35766009986400604
3,2,0,right_cong,1,cong,num_9,num_9,1,0.3641554999630898
3,3,0,right_cong,1,cong,num_9,num_9,1,0.33885139995254576
3,4,0,right_cong,1,cong,num_9,num_9,1,0.3015757000539452
3,5,1,left_cong,1,cong,num_7,num_7,1,0.3321310000028461
3,6,1,left_cong,1,cong,num_7,num_7,1,0.45188189996406436
3,7,1,left_cong,1,cong,num_7,num_7,1,0.3130787000991404
3,8,1,left_cong,1,cong,num_7,num_7,1,0.31365530006587505
3,9,1,left_cong,1,cong,num_7,num_7,1,0.3723850999958813
3,10,1,left_cong,1,cong,num_7,num_7,1,0.3920243999455124
3,11,2,right_incg,0,incg,num_7,num_7,1,0.4395542999263853
3,12,3,left_incg,0,incg,num_9,num_9,1,0.4863032998982817
3,13,2,right_incg,0,incg,num_7,num_7,1,0.3701156999450177
3,14,2,right_incg,0,incg,num_7,num_7,1,0.3856286001391709
3,15,2,right_incg,0,incg,num_7,num_7,1,0.3734481001738459
3,16,0,right_cong,1,cong,num_9,num_9,1,0.47082619997672737
3,17,1,left_cong,1,cong,num_7,num_7,1,0.30051920004189014
3,18,1,left_cong,1,cong,num_7,num_7,1,0.43427189998328686
3,19,1,left_cong,1,cong,num_7,num_7,1,0.3643664999399334
3,20,0,right_cong,1,cong,num_9,num_9,1,0.41632890002802014
3,21,3,left_incg,0,incg,num_9,num_9,1,0.4377969999331981
3,22,3,left_incg,0,incg,num_9,num_9,1,0.4623407998587936
3,23,3,left_incg,0,incg,num_9,num_9,1,0.40907320007681847
3,24,3,left_incg,0,incg,num_9,num_9,1,0.46406399994157255
3,25,3,left_incg,0,incg,num_9,num_9,1,0.35442289989441633
3,26,3,left_incg,0,incg,num_9,num_9,1,0.5670044000726193
3,27,2,right_incg,0,incg,num_7,num_7,1,0.3202523000072688
3,28,3,left_incg,0,incg,num_9,num_9,1,0.41946509992703795
3,29,3,left_incg,0,incg,num_9,num_9,1,0.40622489992529154
3,30,2,right_incg,0,incg,num_7,num_7,1,0.364686599932611
3,31,2,right_incg,0,incg,num_7,num_7,1,0.4131443998776376
3,32,3,left_incg,0,incg,num_9,num_9,1,0.4073634999804199
3,33,3,left_incg,0,incg,num_9,num_9,1,0.3419404998421669
3,34,3,left_incg,0,incg,num_9,num_9,1,0.3606408000923693
3,35,2,right_incg,0,incg,num_7,num_7,1,0.4082740000449121
3,36,1,left_cong,1,cong,num_7,num_7,1,0.36727930000051856
3,37,0,right_cong,1,cong,num_9,num_9,1,0.31425519986078143
3,38,0,right_cong,1,cong,num_9,num_9,1,0.37646940001286566
3,39,1,left_cong,1,cong,num_7,num_7,1,0.3697577000129968
3,40,1,left_cong,1,cong,num_7,num_7,1,0.4248901999089867
3,41,2,right_incg,0,incg,num_7,num_7,1,0.4106366999913007
3,42,2,right_incg,0,incg,num_7,num_7,1,0.45783480000682175
3,43,3,left_incg,0,incg,num_9,num_9,1,0.4076290000230074
3,44,3,left_incg,0,incg,num_9,num_9,1,0.4385653000790626
3,45,2,right_incg,0,incg,num_7,num_7,1,0.41864090017043054
3,46,0,right_cong,1,cong,num_9,num_9,1,0.4563166999723762
3,47,1,left_cong,1,cong,num_7,num_7,1,0.4216143998783082
3,48,0,right_cong,1,cong,num_9,num_9,1,0.3710531999822706
3,49,1,left_cong,1,cong,num_7,num_7,1,0.36795840016566217
3,50,0,right_cong,1,cong,num_9,num_9,1,0.34100360004231334
3,51,3,left_incg,0,incg,num_9,num_9,1,0.432479000184685
3,52,3,left_incg,0,incg,num_9,num_9,1,0.45297240000218153
3,53,3,left_incg,0,incg,num_9,num_9,1,0.42507400014437735
3,54,2,right_incg,0,incg,num_7,num_7,1,0.42051059985533357
3,55,2,right_incg,0,incg,num_7,num_7,1,0.4544521998614073
3,56,0,right_cong,1,cong,num_9,num_9,1,0.5442651000339538
3,57,1,left_cong,1,cong,num_7,num_7,1,0.4525442998856306
3,58,1,left_cong,1,cong,num_7,num_7,1,0.4324888999108225
3,59,0,right_cong,1,cong,num_9,num_9,1,0.3704722998663783
3,60,1,left_cong,1,cong,num_7,num_7,1,0.3680638000369072
3,61,0,right_cong,1,cong,num_9,num_9,1,0.47098590014502406
3,62,0,right_cong,1,cong,num_9,num_9,1,0.43176669999957085
3,63,1,left_cong,1,cong,num_7,num_7,1,0.4153430999722332
3,64,0,right_cong,1,cong,num_9,num_9,1,0.39217970008030534
3,65,0,right_cong,1,cong,num_9,num_9,1,0.4458989000413567
3,66,1,left_cong,1,cong,num_7,num_7,1,0.4624941998627037
3,67,0,right_cong,1,cong,num_9,,0,
3,68,1,left_cong,1,cong,num_7,num_7,1,0.42058080015704036
3,69,1,left_cong,1,cong,num_7,num_7,1,0.48206899990327656
3,70,0,right_cong,1,cong,num_9,num_9,1,0.37656229990534484
3,71,1,left_cong,1,cong,num_7,num_7,1,0.5002400001976639
3,72,1,left_cong,1,cong,num_7,num_7,1,0.36323739984072745
3,73,0,right_cong,1,cong,num_9,num_9,1,0.4241823998745531
3,74,1,left_cong,1,cong,num_7,,0,
3,75,0,right_cong,1,cong,num_9,num_9,1,0.3896779001224786
3,76,3,left_incg,0,incg,num_9,num_9,1,0.47381110000424087
3,77,2,right_incg,0,incg,num_7,num_7,1,0.3847685002256185
3,78,2,right_incg,0,incg,num_7,num_7,1,0.5082374999765307
3,79,2,right_incg,0,incg,num_7,num_7,1,0.4945816998369992
3,80,2,right_incg,0,incg,num_7,num_7,1,0.45504219993017614
3,81,3,left_incg,0,incg,num_9,num_9,1,0.4795097999740392
3,82,2,right_incg,0,incg,num_7,num_7,1,0.4090040000155568
3,83,2,right_incg,0,incg,num_7,num_7,1,0.4134565000422299
3,84,3,left_incg,0,incg,num_9,num_9,1,0.40435480000451207
3,85,2,right_incg,0,incg,num_7,num_7,1,0.4316076000686735
3,86,2,right_incg,0,incg,num_7,num_7,1,0.4713830000255257
3,87,2,right_incg,0,incg,num_7,num_7,1,0.4384021000005305
3,88,3,left_incg,0,incg,num_9,num_9,1,0.43703439994715154
3,89,2,right_incg,0,incg,num_7,num_7,1,0.4471136999782175
3,90,3,left_incg,0,incg,num_9,num_9,1,0.42959999991580844
3,91,0,right_cong,1,cong,num_9,num_9,1,0.46354439994320273
3,92,0,right_cong,1,cong,num_9,num_9,1,0.4951914001721889
3,93,1,left_cong,1,cong,num_7,,0,
3,94,0,right_cong,1,cong,num_9,num_9,1,0.4278413001447916
3,95,1,left_cong,1,cong,num_7,num_7,1,0.43899949989281595
3,96,3,left_incg,0,incg,num_9,num_9,1,0.4211993000935763
3,97,3,left_incg,0,incg,num_9,num_9,1,0.4120734001044184
3,98,3,left_incg,0,incg,num_9,num_9,1,0.37563000014051795
3,99,2,right_incg,0,incg,num_7,num_7,1,0.4446815000846982
3,100,3,left_incg,0,incg,num_9,num_9,1,0.44997570011764765
4,1,3,left_incg,0,incg,num_9,num_9,1,0.4713661998976022
4,2,2,right_incg,0,incg,num_7,num_7,1,0.4356903999578208
4,3,3,left_incg,0,incg,num_9,num_9,1,0.43885419983416796
4,4,2,right_incg,0,incg,num_7,num_7,1,0.44277899991720915
4,5,3,left_incg,0,incg,num_9,num_9,1,0.41875099996104836
4,6,3,left_incg,0,incg,num_9,num_9,1,0.46040589991025627
4,7,3,left_incg,0,incg,num_9,num_9,1,0.406892400002107
4,8,3,left_incg,0,incg,num_9,num_9,1,0.43642989988438785
4,9,3,left_incg,0,incg,num_9,num_9,1,0.3983274002093822
4,10,3,left_incg,0,incg,num_9,num_9,1,0.5327397000510246
4,11,1,left_cong,1,cong,num_7,num_7,1,0.48067059996537864
4,12,1,left_cong,1,cong,num_7,num_7,1,0.38229059986770153
4,13,0,right_cong,1,cong,num_9,num_9,1,0.42181910015642643
4,14,1,left_cong,1,cong,num_7,num_7,1,0.45764330006204545
4,15,0,right_cong,1,cong,num_9,num_9,1,0.3232803998980671
4,16,0,right_cong,1,cong,num_9,num_9,1,0.5055223999079317
4,17,1,left_cong,1,cong,num_7,num_7,1,0.34933239989914
4,18,1,left_cong,1,cong,num_7,num_7,1,0.43691810010932386
4,19,1,left_cong,1,cong,num_7,num_7,1,0.46387060009874403
4,20,1,left_cong,1,cong,num_7,num_7,1,0.40053620003163815
4,21,3,left_incg,0,incg,num_9,num_9,1,0.5002946997992694
4,22,2,right_incg,0,incg,num_7,num_7,1,0.46215320006012917
4,23,3,left_incg,0,incg,num_9,num_9,1,0.444817999843508
4,24,3,left_incg,0,incg,num_9,num_9,1,0.44346829992718995
4,25,2,right_incg,0,incg,num_7,num_7,1,0.46878809994086623
4,26,2,right_incg,0,incg,num_7,num_7,1,0.4614200000651181
4,27,2,right_incg,0,incg,num_7,num_7,1,0.4185607999097556
4,28,2,right_incg,0,incg,num_7,num_7,1,0.43089329986833036
4,29,3,left_incg,0,incg,num_9,num_9,1,0.48479560017585754
4,30,3,left_incg,0,incg,num_9,num_9,1,0.4722227999009192
4,31,1,left_cong,1,cong,num_7,num_7,1,0.48788280016742647
4,32,0,right_cong,1,cong,num_9,num_9,1,0.42485249997116625
4,33,1,left_cong,1,cong,num_7,num_7,1,0.4582046000286937
4,34,0,right_cong,1,cong,num_9,num_9,1,0.4276177000720054
4,35,1,left_cong,1,cong,num_7,num_7,1,0.35673370002768934
4,36,3,left_incg,0,incg,num_9,num_9,1,0.368611800018698
4,37,3,left_incg,0,incg,num_9,num_9,1,0.4750910000875592
4,38,3,left_incg,0,incg,num_9,num_9,1,0.40168979996815324
4,39,3,left_incg,0,incg,num_9,num_9,1,0.4402811999898404
4,40,2,right_incg,0,incg,num_7,num_7,1,0.45320649980567396
4,41,0,right_cong,1,cong,num_9,num_9,1,0.5878377999179065
4,42,0,right_cong,1,cong,num_9,num_9,1,0.4040953000076115
4,43,1,left_cong,1,cong,num_7,num_7,1,0.4151569998357445
4,44,0,right_cong,1,cong,num_9,num_9,1,0.35813519987277687
4,45,0,right_cong,1,cong,num_9,,0,
4,46,1,left_cong,1,cong,num_7,num_7,1,0.365508200135082
4,47,0,right_cong,1,cong,num_9,num_9,1,0.38300400017760694
4,48,1,left_cong,1,cong,num_7,num_7,1,0.32278520008549094
4,49,0,right_cong,1,cong,num_9,num_9,1,0.41606770013459027
4,50,1,left_cong,1,cong,num_7,num_7,1,0.3798182001337409
4,51,2,right_incg,0,incg,num_7,num_7,1,0.375592099968344
4,52,2,right_incg,0,incg,num_7,num_7,1,0.37501080008223653
4,53,2,right_incg,0,incg,num_7,num_7,1,0.35890290001407266
4,54,3,left_incg,0,incg,num_9,num_9,1,0.5094884000718594
4,55,2,right_incg,0,incg,num_7,num_7,1,0.3981758998706937
4,56,1,left_cong,1,cong,num_7,num_7,1,0.570740700000897
4,57,0,right_cong,1,cong,num_9,num_9,1,0.5334544000215828
4,58,1,left_cong,1,cong,num_7,num_7,1,0.38194070011377335
4,59,1,left_cong,1,cong,num_7,num_7,1,0.40020349994301796
4,60,0,right_cong,1,cong,num_9,num_9,1,0.42270340002141893
4,61,1,left_cong,1,cong,num_7,num_7,1,0.39349699998274446
4,62,1,left_cong,1,cong,num_7,num_7,1,0.4032947001978755
4,63,0,right_cong,1,cong,num_9,num_9,1,0.4002206998411566
4,64,0,right_cong,1,cong,num_9,num_9,1,0.4342010000254959
4,65,1,left_cong,1,cong,num_7,num_7,1,0.39053420000709593
4,66,3,left_incg,0,incg,num_9,num_9,1,0.47730639996007085
4,67,3,left_incg,0,incg,num_9,num_9,1,0.38917599990963936
4,68,2,right_incg,0,incg,num_7,num_7,1,0.5188633999787271
4,69,2,right_incg,0,incg,num_7,num_7,1,0.3806801000609994
4,70,2,right_incg,0,incg,num_7,num_7,1,0.41309010004624724
4,71,0,right_cong,1,cong,num_9,num_9,1,0.45327890012413263
4,72,0,right_cong,1,cong,num_9,num_9,1,0.44022480002604425
4,73,0,right_cong,1,cong,num_9,num_9,1,0.45613930001854897
4,74,0,right_cong,1,cong,num_9,num_9,1,0.3724521000403911
4,75,1,left_cong,1,cong,num_7,num_7,1,0.37938319984823465
4,76,0,right_cong,1,cong,num_9,num_9,1,0.4609685998875648
4,77,1,left_cong,1,cong,num_7,num_7,1,0.3676757998764515
4,78,1,left_cong,1,cong,num_7,num_7,1,0.46151209995150566
4,79,0,right_cong,1,cong,num_9,num_9,1,0.4281348001677543
4,80,1,left_cong,1,cong,num_7,num_7,1,0.6768889001104981
4,81,1,left_cong,1,cong,num_7,num_7,1,0.38085220009088516
4,82,0,right_cong,1,cong,num_9,num_9,1,0.372707299888134
4,83,0,right_cong,1,cong,num_9,num_9,1,0.42682529985904694
4,84,1,left_cong,1,cong,num_7,num_7,1,0.366064399946481
4,85,1,left_cong,1,cong,num_7,,0,
4,86,3,left_incg,0,incg,num_9,num_9,1,0.3870739000849426
4,87,2,right_incg,0,incg,num_7,num_7,1,0.4063999999780208
4,88,3,left_incg,0,incg,num_9,num_9,1,0.4014034001156688
4,89,3,left_incg,0,incg,num_9,num_9,1,0.4934124001301825
4,90,2,right_incg,0,incg,num_7,num_7,1,0.40799669991247356
4,91,1,left_cong,1,cong,num_7,num_7,1,0.3513245000503957
4,92,1,left_cong,1,cong,num_7,num_7,1,0.3942686999216676
4,93,0,right_cong,1,cong,num_9,num_9,1,0.33874600008130074
4,94,0,right_cong,1,cong,num_9,num_9,1,0.4236695999279618
4,95,0,right_cong,1,cong,num_9,num_9,1,0.42755339993163943
4,96,0,right_cong,1,cong,num_9,num_9,1,0.45981450006365776
4,97,1,left_cong,1,cong,num_7,num_7,1,0.40247950004413724
4,98,1,left_cong,1,cong,num_7,num_7,1,0.39660990005359054
4,99,1,left_cong,1,cong,num_7,num_7,1,0.4120175000280142
4,100,0,right_cong,1,cong,num_9,num_9,1,0.333157500019297
5,1,3,left_incg,0,incg,num_9,num_9,1,0.3668176999781281
5,2,2,right_incg,0,incg,num_7,num_7,1,0.34280409989878535
5,3,2,right_incg,0,incg,num_7,num_7,1,0.3749940001871437
5,4,3,left_incg,0,incg,num_9,num_9,1,0.34647110011428595
5,5,3,left_incg,0,incg,num_9,num_9,1,0.32324010017327964
5,6,2,right_incg,0,incg,num_7,num_7,1,0.3817632000427693
5,7,2,right_incg,0,incg,num_7,num_7,1,0.3624648000113666
5,8,3,left_incg,0,incg,num_9,num_9,1,0.4237223998643458
5,9,3,left_incg,0,incg,num_9,num_9,1,0.4066268000751734
5,10,3,left_incg,0,incg,num_9,num_9,1,0.39813200011849403
5,11,0,right_cong,1,cong,num_9,num_9,1,0.42049059993587434
5,12,1,left_cong,1,cong,num_7,num_7,1,0.33388329995796084
5,13,1,left_cong,1,cong,num_7,num_7,1,0.3961825000587851
5,14,0,right_cong,1,cong,num_9,num_9,1,0.33284059981815517
5,15,0,right_cong,1,cong,num_9,num_9,1,0.34760159999132156
5,16,0,right_cong,1,cong,num_9,num_9,1,0.3556170999072492
5,17,0,right_cong,1,cong,num_9,num_9,1,0.39992480003274977
5,18,0,right_cong,1,cong,num_9,num_9,1,0.3272528999950737
5,19,0,right_cong,1,cong,num_9,num_9,1,0.3430572000797838
5,20,0,right_cong,1,cong,num_9,num_9,1,0.3422040999867022
5,21,0,right_cong,1,cong,num_9,num_9,1,0.4275695001706481
5,22,0,right_cong,1,cong,num_9,num_9,1,0.39443939994089305
5,23,1,left_cong,1,cong,num_7,num_7,1,0.4543995000422001
5,24,1,left_cong,1,cong,num_7,num_7,1,0.4353910000063479
5,25,1,left_cong,1,cong,num_7,num_7,1,0.43954970012418926
5,26,0,right_cong,1,cong,num_9,num_9,1,0.329280799953267
5,27,0,right_cong,1,cong,num_9,num_9,1,0.48538880003616214
5,28,0,right_cong,1,cong,num_9,num_9,1,0.4058127999305725
5,29,0,right_cong,1,cong,num_9,num_9,1,0.3989556999877095
5,30,0,right_cong,1,cong,num_9,num_9,1,0.40937739983201027
5,31,3,left_incg,0,incg,num_9,num_9,1,0.3684770001564175
5,32,2,right_incg,0,incg,num_7,num_7,1,0.44356380007229745
5,33,3,left_incg,0,incg,num_9,num_9,1,0.5003035999834538
5,34,2,right_incg,0,incg,num_7,num_7,1,0.4500180999748409
5,35,2,right_incg,0,incg,num_7,num_7,1,0.4605036999564618
5,36,3,left_incg,0,incg,num_9,num_9,1,0.3704037999268621
5,37,3,left_incg,0,incg,num_9,num_9,1,0.38505290006287396
5,38,3,left_incg,0,incg,num_9,num_9,1,0.38209179998375475
5,39,2,right_incg,0,incg,num_7,num_7,1,0.3729727000463754
5,40,2,right_incg,0,incg,num_7,num_7,1,0.36287220008671284
5,41,1,left_cong,1,cong,num_7,num_9,0,0.3894549000542611
5,42,0,right_cong,1,cong,num_9,num_9,1,0.6932758998591453
5,43,1,left_cong,1,cong,num_7,num_7,1,0.38842019997537136
5,44,1,left_cong,1,cong,num_7,num_7,1,0.4216811000369489
5,45,1,left_cong,1,cong,num_7,num_7,1,0.48565040016546845
5,46,1,left_cong,1,cong,num_7,num_7,1,0.4553423998877406
5,47,1,left_cong,1,cong,num_7,num_7,1,0.3768062999006361
5,48,1,left_cong,1,cong,num_7,num_7,1,0.4015543998684734
5,49,1,left_cong,1,cong,num_7,num_7,1,0.34308190015144646
5,50,0,right_cong,1,cong,num_9,num_9,1,0.41072789998725057
5,51,1,left_cong,1,cong,num_7,num_7,1,0.3718228000216186
5,52,0,right_cong,1,cong,num_9,num_9,1,0.35439449991099536
5,53,0,right_cong,1,cong,num_9,num_9,1,0.39492199989035726
5,54,0,right_cong,1,cong,num_9,num_9,1,0.3173719998449087
5,55,0,right_cong,1,cong,num_9,num_9,1,0.3302675001323223
5,56,0,right_cong,1,cong,num_9,num_9,1,0.3815005999058485
5,57,1,left_cong,1,cong,num_7,num_7,1,0.3512015000451356
5,58,0,right_cong,1,cong,num_9,num_9,1,0.3330115999560803
5,59,0,right_cong,1,cong,num_9,num_9,1,0.35438129981048405
5,60,1,left_cong,1,cong,num_7,num_7,1,0.39196530007757246
5,61,2,right_incg,0,incg,num_7,num_7,1,0.45967560005374253
5,62,3,left_incg,0,incg,num_9,num_9,1,0.45553659996949136
5,63,2,right_incg,0,incg,num_7,num_7,1,0.47768149990588427
5,64,2,right_incg,0,incg,num_7,num_7,1,0.4850155001040548
5,65,2,right_incg,0,incg,num_7,num_7,1,0.38370119989849627
5,66,1,left_cong,1,cong,num_7,num_7,1,0.3693812999408692
5,67,0,right_cong,1,cong,num_9,num_9,1,0.3943774001672864
5,68,0,right_cong,1,cong,num_9,num_9,1,0.40868559991940856
5,69,0,right_cong,1,cong,num_9,num_9,1,0.49307289998978376
5,70,1,left_cong,1,cong,num_7,num_7,1,0.3698774999938905
5,71,3,left_incg,0,incg,num_9,num_9,1,0.4134498001076281
5,72,2,right_incg,0,incg,num_7,num_7,1,0.3584533000830561
5,73,3,left_incg,0,incg,num_9,num_9,1,0.40847539994865656
5,74,3,left_incg,0,incg,num_9,num_9,1,0.4579441000241786
5,75,3,left_incg,0,incg,num_9,num_9,1,0.41822140011936426
5,76,1,left_cong,1,cong,num_7,num_7,1,0.42288210010156035
5,77,0,right_cong,1,cong,num_9,num_9,1,0.36707669985480607
5,78,1,left_cong,1,cong,num_7,num_7,1,0.3612806999590248
5,79,1,left_cong,1,cong,num_7,num_7,1,0.42663560016080737
5,80,1,left_cong,1,cong,num_7,num_7,1,0.41041300003416836
5,81,0,right_cong,1,cong,num_9,num_9,1,0.3810175000689924
5,82,0,right_cong,1,cong,num_9,num_9,1,0.3886402999050915
5,83,0,right_cong,1,cong,num_9,num_9,1,0.41835839999839664
5,84,0,right_cong,1,cong,num_9,num_9,1,0.3855051000136882
5,85,1,left_cong,1,cong,num_7,num_7,1,0.4000256001017988
5,86,1,left_cong,1,cong,num_7,num_7,1,0.38969229999929667
5,87,0,right_cong,1,cong,num_9,num_9,1,0.33768739993683994
5,88,1,left_cong,1,cong,num_7,num_7,1,0.3625251001212746
5,89,0,right_cong,1,cong,num_9,num_9,1,0.3299924999009818
5,90,0,right_cong,1,cong,num_9,num_9,1,0.4645136999897659
5,91,3,left_incg,0,incg,num_9,num_9,1,0.49063319992274046
5,92,3,left_incg,0,incg,num_9,num_9,1,0.4693303001113236
5,93,3,left_incg,0,incg,num_9,num_9,1,0.41872210009023547
5,94,2,right_incg,0,incg,num_7,num_7,1,0.48554900009185076
5,95,3,left_incg,0,incg,num_9,num_9,1,0.4154754998162389
5,96,0,right_cong,1,cong,num_9,num_9,1,0.49610009999014437
5,97,0,right_cong,1,cong,num_9,num_9,1,0.37194059998728335
5,98,1,left_cong,1,cong,num_7,num_7,1,0.3808945999480784
5,99,0,right_cong,1,cong,num_9,num_9,1,0.4056597000453621
5,100,0,right_cong,1,cong,num_9,num_9,1,0.37184870010241866
6,1,2,right_incg,0,incg,num_7,num_7,1,0.4356945001054555
6,2,2,right_incg,0,incg,num_7,num_7,1,0.38261159998364747
6,3,3,left_incg,0,incg,num_9,num_9,1,0.3949954998679459
6,4,3,left_incg,0,incg,num_9,num_9,1,0.44540400011464953
6,5,3,left_incg,0,incg,num_9,num_9,1,0.45641470002010465
6,6,2,right_incg,0,incg,num_7,num_7,1,0.39464420010335743
6,7,3,left_incg,0,incg,num_9,num_9,1,0.4036407000385225
6,8,3,left_incg,0,incg,num_9,num_9,1,0.5424341999460012
6,9,2,right_incg,0,incg,num_7,num_7,1,0.4846028001047671
6,10,2,right_incg,0,incg,num_7,num_7,1,0.5002437001094222
6,11,1,left_cong,1,cong,num_7,num_7,1,0.4527969001792371
6,12,1,left_cong,1,cong,num_7,num_7,1,0.3882267000153661
6,13,1,left_cong,1,cong,num_7,num_7,1,0.43702290020883083
6,14,0,right_cong,1,cong,num_9,num_9,1,0.4225810000207275
6,15,0,right_cong,1,cong,num_9,num_9,1,0.39846870000474155
6,16,1,left_cong,1,cong,num_7,num_7,1,0.32924959994852543
6,17,0,right_cong,1,cong,num_9,num_9,1,0.3532185999210924
6,18,0,right_cong,1,cong,num_9,num_9,1,0.4445861999411136
6,19,0,right_cong,1,cong,num_9,num_9,1,0.35004960000514984
6,20,0,right_cong,1,cong,num_9,num_9,1,0.3906056000851095
6,21,2,right_incg,0,incg,num_7,num_7,1,0.42384609999135137
6,22,2,right_incg,0,incg,num_7,num_7,1,0.4023540001362562
6,23,3,left_incg,0,incg,num_9,num_9,1,0.4482368000317365
6,24,2,right_incg,0,incg,num_7,num_7,1,0.39347440004348755
6,25,3,left_incg,0,incg,num_9,num_9,1,0.393548300024122
6,26,0,right_cong,1,cong,num_9,num_9,1,0.4945964999496937
6,27,0,right_cong,1,cong,num_9,num_9,1,0.3733987999148667
6,28,1,left_cong,1,cong,num_7,num_7,1,0.42664829990826547
6,29,0,right_cong,1,cong,num_9,num_9,1,0.3635160999838263
6,30,0,right_cong,1,cong,num_9,num_9,1,0.3750227000564337
6,31,2,right_incg,0,incg,num_7,num_7,1,0.39861120004206896
6,32,2,right_incg,0,incg,num_7,num_7,1,0.46478480007499456
6,33,2,right_incg,0,incg,num_7,num_7,1,0.4682948000263423
6,34,3,left_incg,0,incg,num_9,num_9,1,0.4082351999823004
6,35,2,right_incg,0,incg,num_7,num_7,1,0.5056190001778305
6,36,1,left_cong,1,cong,num_7,num_7,1,0.45532539999112487
6,37,1,left_cong,1,cong,num_7,num_7,1,0.38318159990012646
6,38,1,left_cong,1,cong,num_7,num_7,1,0.41337779979221523
6,39,1,left_cong,1,cong,num_7,num_7,1,0.3876203999388963
6,40,0,right_cong,1,cong,num_9,num_9,1,0.5219918000511825
6,41,2,right_incg,0,incg,num_7,num_7,1,0.3946882002055645
6,42,3,left_incg,0,incg,num_9,num_9,1,0.4160746999550611
6,43,2,right_incg,0,incg,num_7,num_7,1,0.3660329000558704
6,44,3,left_incg,0,incg,num_9,num_9,1,0.4424775999505073
6,45,2,right_incg,0,incg,num_7,num_7,1,0.4651643999386579
6,46,1,left_cong,1,cong,num_7,num_7,1,0.42891820007935166
6,47,1,left_cong,1,cong,num_7,num_7,1,0.39652820001356304
6,48,1,left_cong,1,cong,num_7,num_7,1,0.3502974999137223
6,49,0,right_cong,1,cong,num_9,num_9,1,0.4056025000754744
6,50,1,left_cong,1,cong,num_7,num_7,1,0.41434839996509254
6,51,0,right_cong,1,cong,num_9,num_9,1,0.3457077001221478
6,52,0,right_cong,1,cong,num_9,num_9,1,0.3737439000979066
6,53,0,right_cong,1,cong,num_9,num_9,1,0.3374012999702245
6,54,0,right_cong,1,cong,num_9,num_9,1,0.4210907998494804
6,55,0,right_cong,1,cong,num_9,num_9,1,0.4437599000521004
6,56,3,left_incg,0,incg,num_9,num_9,1,0.39317330019548535
6,57,3,left_incg,0,incg,num_9,num_9,1,0.4063941999338567
6,58,3,left_incg,0,incg,num_9,num_9,1,0.3866515001282096
6,59,2,right_incg,0,incg,num_7,num_9,0,0.39480690006166697
6,60,2,right_incg,0,incg,num_7,num_7,1,0.4233580001164228
6,61,3,left_incg,0,incg,num_9,num_9,1,0.44172980007715523
6,62,3,left_incg,0,incg,num_9,num_9,1,0.4405562998726964
6,63,3,left_incg,0,incg,num_9,num_9,1,0.40246089990250766
6,64,3,left_incg,0,incg,num_9,num_9,1,0.423002399969846
6,65,3,left_incg,0,incg,num_9,num_9,1,0.3791765000205487
6,66,1,left_cong,1,cong,num_7,num_7,1,0.5142362001352012
6,67,0,right_cong,1,cong,num_9,num_9,1,0.35844360012561083
6,68,1,left_cong,1,cong,num_7,num_7,1,0.4334925999864936
6,69,0,right_cong,1,cong,num_9,num_9,1,0.35885350010357797
6,70,0,right_cong,1,cong,num_9,num_9,1,0.46222430001944304
6,71,3,left_incg,0,incg,num_9,num_9,1,0.43805340002290905
6,72,2,right_incg,0,incg,num_7,num_7,1,0.3867273998912424
6,73,2,right_incg,0,incg,num_7,num_7,1,0.45273320004343987
6,74,2,right_incg,0,incg,num_7,num_7,1,0.4836347000673413
6,75,3,left_incg,0,incg,num_9,num_9,1,0.4487517001107335
6,76,0,right_cong,1,cong,num_9,num_9,1,0.40945290005765855
6,77,1,left_cong,1,cong,num_7,num_7,1,0.5416759001091123
6,78,0,right_cong,1,cong,num_9,num_9,1,0.3473953001666814
6,79,1,left_cong,1,cong,num_7,num_7,1,0.42436300008557737
6,80,1,left_cong,1,cong,num_7,num_7,1,0.40197800006717443
6,81,1,left_cong,1,cong,num_7,num_7,1,0.4003849998116493
6,82,0,right_cong,1,cong,num_9,num_9,1,0.38199259992688894
6,83,1,left_cong,1,cong,num_7,num_7,1,0.33534300001338124
6,84,0,right_cong,1,cong,num_9,num_9,1,0.3863013999070972
6,85,1,left_cong,1,cong,num_7,num_7,1,0.3128988000098616
6,86,2,right_incg,0,incg,num_7,num_7,1,0.39745379984378815
6,87,3,left_incg,0,incg,num_9,num_9,1,0.4432421000674367
6,88,3,left_incg,0,incg,num_9,num_9,1,0.4313260999042541
6,89,3,left_incg,0,incg,num_9,num_9,1,0.4263881000224501
6,90,2,right_incg,0,incg,num_7,num_7,1,0.4031601999886334
6,91,3,left_incg,0,incg,num_9,num_9,1,0.4006922000553459
6,92,2,right_incg,0,incg,num_7,num_7,1,0.3731084999162704
6,93,2,right_incg,0,incg,num_7,num_7,1,0.39073640014976263
6,94,3,left_incg,0,incg,num_9,num_9,1,0.38230050005950034
6,95,3,left_incg,0,incg,num_9,num_9,1,0.3658804998267442
6,96,1,left_cong,1,cong,num_7,num_7,1,0.7075992000754923
6,97,1,left_cong,1,cong,num_7,num_7,1,0.3592941998504102
6,98,1,left_cong,1,cong,num_7,num_7,1,0.38886300008744
6,99,0,right_cong,1,cong,num_9,num_9,1,0.4376101999077946
6,100,0,right_cong,1,cong,num_9,num_9,1,0.35205350001342595
7,1,2,right_incg,0,incg,num_7,num_7,1,0.4000043000560254
7,2,2,right_incg,0,incg,num_7,num_7,1,0.3751300999429077
7,3,2,right_incg,0,incg,num_7,num_7,1,0.3341080001555383
7,4,2,right_incg,0,incg,num_7,num_7,1,0.3855916999746114
7,5,3,left_incg,0,incg,num_9,num_9,1,0.40950240008533
7,6,2,right_incg,0,incg,num_7,num_7,1,0.3604812000412494
7,7,2,right_incg,0,incg,num_7,num_7,1,0.3634265000000596
7,8,2,right_incg,0,incg,num_7,num_7,1,0.3732789000496268
7,9,3,left_incg,0,incg,num_9,num_9,1,0.4684349000453949
7,10,2,right_incg,0,incg,num_7,num_7,1,0.36273079994134605
7,11,0,right_cong,1,cong,num_9,num_9,1,0.3714876000303775
7,12,0,right_cong,1,cong,num_9,num_9,1,0.48235639999620616
7,13,1,left_cong,1,cong,num_7,num_7,1,0.34901310014538467
7,14,1,left_cong,1,cong,num_7,num_7,1,0.40463289991021156
7,15,0,right_cong,1,cong,num_9,num_9,1,0.43711280007846653
7,16,3,left_incg,0,incg,num_9,num_9,1,0.4146096999756992
7,17,3,left_incg,0,incg,num_9,num_9,1,0.41368590015918016
7,18,2,right_incg,0,incg,num_7,num_7,1,0.4184298999607563
7,19,3,left_incg,0,incg,num_9,num_9,1,0.45710449991747737
7,20,3,left_incg,0,incg,num_9,num_9,1,0.4622802999801934
7,21,3,left_incg,0,incg,num_9,num_9,1,0.4350556000135839
7,22,2,right_incg,0,incg,num_7,num_7,1,0.357574800029397
7,23,2,right_incg,0,incg,num_7,num_7,1,0.37806759984232485
7,24,3,left_incg,0,incg,num_9,num_9,1,0.3660838999785483
7,25,3,left_incg,0,incg,num_9,num_9,1,0.48217889992520213
7,26,0,right_cong,1,cong,num_9,num_9,1,0.4571913001127541
7,27,1,left_cong,1,cong,num_7,num_7,1,0.3633110001683235
7,28,1,left_cong,1,cong,num_7,num_7,1,0.4118699000682682
7,29,1,left_cong,1,cong,num_7,num_7,1,0.43516570003703237
7,30,0,right_cong,1,cong,num_9,num_9,1,0.3819044001866132
7,31,2,right_incg,0,incg,num_7,num_7,1,0.6740188000258058
7,32,3,left_incg,0,incg,num_9,num_9,1,0.32138999993912876
7,33,2,right_incg,0,incg,num_7,num_7,1,0.37835859996266663
7,34,3,left_incg,0,incg,num_9,num_9,1,0.37367050000466406
7,35,2,right_incg,0,incg,num_7,num_7,1,0.3735134999733418
7,36,1,left_cong,1,cong,num_7,num_7,1,0.41055890009738505
7,37,0,right_cong,1,cong,num_9,num_9,1,0.3343832998070866
7,38,1,left_cong,1,cong,num_7,num_7,1,0.34355029999278486
7,39,0,right_cong,1,cong,num_9,num_9,1,0.3298796000890434
7,40,1,left_cong,1,cong,num_7,num_7,1,0.3650789000093937
7,41,2,right_incg,0,incg,num_7,num_7,1,0.4012390000279993
7,42,2,right_incg,0,incg,num_7,num_7,1,0.4134569999296218
7,43,2,right_incg,0,incg,num_7,num_7,1,0.3724494001362473
7,44,2,right_incg,0,incg,num_7,num_7,1,0.647744599962607
7,45,3,left_incg,0,incg,num_9,num_9,1,0.4441034998744726
7,46,2,right_incg,0,incg,num_7,num_7,1,0.46260859980247915
7,47,2,right_incg,0,incg,num_7,num_7,1,0.3989818000700325
7,48,2,right_incg,0,incg,num_7,num_7,1,0.385604300070554
7,49,2,right_incg,0,incg,num_7,num_7,1,0.35166970011778176
7,50,2,right_incg,0,incg,num_7,num_7,1,0.3522467000875622
7,51,1,left_cong,1,cong,num_7,num_7,1,0.38231900008395314
7,52,1,left_cong,1,cong,num_7,num_7,1,0.36638939986005425
7,53,0,right_cong,1,cong,num_9,num_9,1,0.48161939997226
7,54,0,right_cong,1,cong,num_9,num_9,1,0.44613520009443164
7,55,0,right_cong,1,cong,num_9,num_9,1,0.393162899883464
7,56,2,right_incg,0,incg,num_7,,0,
7,57,2,right_incg,0,incg,num_7,num_7,1,0.44536300003528595
7,58,3,left_incg,0,incg,num_9,num_9,1,0.42574510001577437
7,59,2,right_incg,0,incg,num_7,num_7,1,0.4710744998883456
7,60,3,left_incg,0,incg,num_9,num_9,1,0.4061883999966085
7,61,2,right_incg,0,incg,num_7,num_7,1,0.3946310000028461
7,62,3,left_incg,0,incg,num_9,num_9,1,0.36151809990406036
7,63,3,left_incg,0,incg,num_9,num_9,1,0.42128110001794994
7,64,2,right_incg,0,incg,num_7,num_7,1,0.42057299986481667
7,65,2,right_incg,0,incg,num_7,num_7,1,0.5467639998532832
7,66,2,right_incg,0,incg,num_7,num_7,1,0.37599269999191165
7,67,3,left_incg,0,incg,num_9,num_9,1,0.39231559983454645
7,68,3,left_incg,0,incg,num_9,num_9,1,0.4222795001696795
7,69,2,right_incg,0,incg,num_7,num_7,1,0.33780979993753135
7,70,3,left_incg,0,incg,num_9,num_9,1,0.3814501999877393
7,71,1,left_cong,1,cong,num_7,num_7,1,0.43321769987232983
7,72,1,left_cong,1,cong,num_7,num_7,1,0.4223772999830544
7,73,1,left_cong,1,cong,num_7,num_7,1,0.4141406000126153
7,74,1,left_cong,1,cong,num_7,num_7,1,0.4000953999347985
7,75,0,right_cong,1,cong,num_9,num_9,1,0.320567199960351
7,76,3,left_incg,0,incg,num_9,num_9,1,0.4564050999470055
7,77,2,right_incg,0,incg,num_7,num_7,1,0.3640432001557201
7,78,3,left_incg,0,incg,num_9,num_9,1,0.3377062000799924
7,79,2,right_incg,0,incg,num_7,num_7,1,0.4097132000606507
7,80,2,right_incg,0,incg,num_7,num_7,1,0.38472680002450943
7,81,2,right_incg,0,incg,num_7,num_7,1,0.3851845001336187
7,82,3,left_incg,0,incg,num_9,num_9,1,0.41908120014704764
7,83,2,right_incg,0,incg,num_7,num_7,1,0.37444459996186197
7,84,3,left_incg,0,incg,num_9,num_9,1,0.46077949996106327
7,85,3,left_incg,0,incg,num_9,num_9,1,0.4804970999248326
7,86,2,right_incg,0,incg,num_7,num_7,1,0.4664930000435561
7,87,2,right_incg,0,incg,num_7,num_7,1,0.39230619999580085
7,88,3,left_incg,0,incg,num_9,num_9,1,0.40576599980704486
7,89,2,right_incg,0,incg,num_7,num_7,1,0.40265239984728396
7,90,3,left_incg,0,incg,num_9,num_9,1,0.4523483000230044
7,91,2,right_incg,0,incg,num_7,num_7,1,0.3580380000639707
7,92,3,left_incg,0,incg,num_9,num_9,1,0.48509380011819303
7,93,2,right_incg,0,incg,num_7,num_7,1,0.3465320998802781
7,94,2,right_incg,0,incg,num_7,num_7,1,0.41303829988464713
7,95,2,right_incg,0,incg,num_7,num_7,1,0.3541774000041187
7,96,0,right_cong,1,cong,num_9,num_9,1,0.414674999890849
7,97,0,right_cong,1,cong,num_9,num_9,1,0.4645430000964552
7,98,0,right_cong,1,cong,num_9,num_9,1,0.39053589990362525
7,99,0,right_cong,1,cong,num_9,num_9,1,0.4406135999597609
7,100,1,left_cong,1,cong,num_7,num_7,1,0.3946112999692559
8,1,0,right_cong,1,cong,num_9,num_9,1,0.36341800005175173
8,2,1,left_cong,1,cong,num_7,num_7,1,0.3488084999844432
8,3,0,right_cong,1,cong,num_9,num_9,1,0.3266067998483777
8,4,1,left_cong,1,cong,num_7,num_7,1,0.38712400011718273
8,5,0,right_cong,1,cong,num_9,num_9,1,0.34687500004656613
8,6,2,right_incg,0,incg,num_7,num_7,1,0.45938639994710684
8,7,2,right_incg,0,incg,num_7,num_7,1,0.41974129993468523
8,8,2,right_incg,0,incg,num_7,num_7,1,0.3745582001283765
8,9,3,left_incg,0,incg,num_9,num_9,1,0.40562830003909767
8,10,2,right_incg,0,incg,num_7,num_7,1,0.36870629992336035
8,11,0,right_cong,1,cong,num_9,num_9,1,0.495781899895519
8,12,1,left_cong,1,cong,num_7,num_7,1,0.34756799996830523
8,13,0,right_cong,1,cong,num_9,num_9,1,0.34732910012826324
8,14,0,right_cong,1,cong,num_9,num_9,1,0.37187350005842745
8,15,1,left_cong,1,cong,num_7,num_7,1,0.3411840000189841
8,16,3,left_incg,0,incg,num_9,num_9,1,0.4373602999839932
8,17,3,left_incg,0,incg,num_9,num_9,1,0.4427173000294715
8,18,3,left_incg,0,incg,num_9,num_9,1,0.42027140012942255
8,19,2,right_incg,0,incg,num_7,num_7,1,0.3668041001074016
8,20,2,right_incg,0,incg,num_7,num_7,1,0.44112559990026057
8,21,1,left_cong,1,cong,num_7,num_7,1,0.3753971999976784
8,22,1,left_cong,1,cong,num_7,num_7,1,0.3921752998139709
8,23,0,right_cong,1,cong,num_9,num_9,1,0.3651560000143945
8,24,1,left_cong,1,cong,num_7,num_7,1,0.3179374001920223
8,25,0,right_cong,1,cong,num_9,num_9,1,0.30195290013216436
8,26,2,right_incg,0,incg,num_7,num_7,1,0.3659011002164334
8,27,2,right_incg,0,incg,num_7,num_7,1,0.4340418998617679
8,28,2,right_incg,0,incg,num_7,num_7,1,0.34031899995170534
8,29,2,right_incg,0,incg,num_7,num_7,1,0.36456799996085465
8,30,2,right_incg,0,incg,num_7,num_7,1,0.3591992000583559
8,31,0,right_cong,1,cong,num_9,num_9,1,0.4775447000283748
8,32,0,right_cong,1,cong,num_9,num_9,1,0.3652630001306534
8,33,1,left_cong,1,cong,num_7,num_7,1,0.3692719000391662
8,34,1,left_cong,1,cong,num_7,num_7,1,0.3826391000766307
8,35,0,right_cong,1,cong,num_9,num_9,1,0.3611735000740737
8,36,1,left_cong,1,cong,num_7,num_7,1,0.3254911999683827
8,37,1,left_cong,1,cong,num_7,num_7,1,0.4040465001016855
8,38,1,left_cong,1,cong,num_7,num_7,1,0.34794080001302063
8,39,0,right_cong,1,cong,num_9,num_9,1,0.4136504998896271
8,40,1,left_cong,1,cong,num_7,num_7,1,0.31367950001731515
8,41,2,right_incg,0,incg,num_7,num_7,1,0.4217579001560807
8,42,2,right_incg,0,incg,num_7,num_7,1,0.35420459997840226
8,43,3,left_incg,0,incg,num_9,num_9,1,0.3979852001648396
8,44,3,left_incg,0,incg,num_9,num_9,1,0.4225812000222504
8,45,2,right_incg,0,incg,num_7,num_7,1,0.38227230007760227
8,46,2,right_incg,0,incg,num_7,num_7,1,0.3881427999585867
8,47,3,left_incg,0,incg,num_9,num_9,1,0.37333540013059974
8,48,3,left_incg,0,incg,num_9,num_9,1,0.41051810001954436
8,49,3,left_incg,0,incg,num_9,num_9,1,0.37875909986905754
8,50,3,left_incg,0,incg,num_9,num_7,0,0.37766140000894666
8,51,2,right_incg,0,incg,num_7,num_7,1,0.46792219998314977
8,52,2,right_incg,0,incg,num_7,num_7,1,0.46731230011209846
8,53,3,left_incg,0,incg,num_9,num_9,1,0.4181941000279039
8,54,3,left_incg,0,incg,num_9,num_9,1,0.449666699860245
8,55,2,right_incg,0,incg,num_7,num_7,1,0.43803029996342957
8,56,2,right_incg,0,incg,num_7,num_7,1,0.4784003999084234
8,57,3,left_incg,0,incg,num_9,num_9,1,0.4217954999767244
8,58,3,left_incg,0,incg,num_9,num_9,1,0.4192226000595838
8,59,3,left_incg,0,incg,num_9,num_9,1,0.37158489995636046
8,60,2,right_incg,0,incg,num_7,num_7,1,0.4090549999382347
8,61,1,left_cong,1,cong,num_7,num_7,1,0.39877710002474487
8,62,0,right_cong,1,cong,num_9,num_9,1,0.3985190000385046
8,63,1,left_cong,1,cong,num_7,num_7,1,0.44033499993383884
8,64,0,right_cong,1,cong,num_9,num_9,1,0.3683189998846501
8,65,1,left_cong,1,cong,num_7,num_7,1,0.3516084998846054
8,66,0,right_cong,1,cong,num_9,num_9,1,0.37941829999908805
8,67,1,left_cong,1,cong,num_7,num_7,1,0.32167610013857484
8,68,1,left_cong,1,cong,num_7,num_7,1,0.35823559993878007
8,69,0,right_cong,1,cong,num_9,num_9,1,0.419036400038749
8,70,0,right_cong,1,cong,num_9,num_9,1,0.38221980002708733
8,71,2,right_incg,0,incg,num_7,num_7,1,0.4513422001618892
8,72,2,right_incg,0,incg,num_7,num_7,1,0.41102549992501736
8,73,2,right_incg,0,incg,num_7,num_7,1,0.36789629980921745
8,74,3,left_incg,0,incg,num_9,num_9,1,0.4505368999671191
8,75,2,right_incg,0,incg,num_7,num_7,1,0.41108760004863143
8,76,2,right_incg,0,incg,num_7,num_7,1,0.4252736000344157
8,77,3,left_incg,0,incg,num_9,num_9,1,0.4182949000969529
8,78,3,left_incg,0,incg,num_9,num_9,1,0.43704470014199615
8,79,3,left_incg,0,incg,num_9,num_9,1,0.3608487001620233
8,80,2,right_incg,0,incg,num_7,num_7,1,0.38268419983796775
8,81,3,left_incg,0,incg,num_9,num_9,1,0.42822700017131865
8,82,3,left_incg,0,incg,num_9,num_9,1,0.490163000067696
8,83,2,right_incg,0,incg,num_7,num_7,1,0.586955799954012
8,84,3,left_incg,0,incg,num_9,num_9,1,0.4274939000606537
8,85,2,right_incg,0,incg,num_7,num_7,1,0.41265779989771545
8,86,1,left_cong,1,cong,num_7,num_7,1,0.4233739001210779
8,87,1,left_cong,1,cong,num_7,num_7,1,0.4442040000576526
8,88,1,left_cong,1,cong,num_7,num_7,1,0.596204899949953
8,89,1,left_cong,1,cong,num_7,num_7,1,0.5243002998176962
8,90,0,right_cong,1,cong,num_9,,0,
8,91,1,left_cong,1,cong,num_7,num_7,1,0.37259309994988143
8,92,1,left_cong,1,cong,num_7,num_7,1,0.3963281000033021
8,93,1,left_cong,1,cong,num_7,num_7,1,0.3941666001919657
8,94,0,right_cong,1,cong,num_9,num_9,1,0.41517450008541346
8,95,1,left_cong,1,cong,num_7,num_7,1,0.3902261001057923
8,96,2,right_incg,0,incg,num_7,num_7,1,0.37692249985411763
8,97,3,left_incg,0,incg,num_9,num_9,1,0.3724655001424253
8,98,2,right_incg,0,incg,num_7,num_7,1,0.38766680005937815
8,99,3,left_incg,0,incg,num_9,num_9,1,0.461121000116691
8,100,3,left_incg,0,incg,num_9,num_9,1,0.4378786999732256
9,1,1,left_cong,1,cong,num_7,num_7,1,0.37106160004623234
9,2,1,left_cong,1,cong,num_7,num_7,1,0.32314360002055764
9,3,1,left_cong,1,cong,num_7,num_7,1,0.34495509997941554
9,4,1,left_cong,1,cong,num_7,num_7,1,0.3376231000293046
9,5,0,right_cong,1,cong,num_9,num_9,1,0.4353733998723328
9,6,3,left_incg,0,incg,num_9,num_9,1,0.5519177000969648
9,7,2,right_incg,0,incg,num_7,num_7,1,0.38839110010303557
9,8,2,right_incg,0,incg,num_7,num_7,1,0.34060030011460185
9,9,3,left_incg,0,incg,num_9,num_9,1,0.38040599995292723
9,10,2,right_incg,0,incg,num_7,num_7,1,0.39122559991665184
9,11,3,left_incg,0,incg,num_9,,0,
9,12,2,right_incg,0,incg,num_7,num_7,1,0.31937930011190474
9,13,3,left_incg,0,incg,num_9,num_9,1,0.426584699889645
9,14,2,right_incg,0,incg,num_7,num_7,1,0.40988549985922873
9,15,3,left_incg,0,incg,num_9,num_9,1,0.5012828998733312
9,16,0,right_cong,1,cong,num_9,num_9,1,0.47977840015664697
9,17,1,left_cong,1,cong,num_7,num_7,1,0.2822130999993533
9,18,0,right_cong,1,cong,num_9,num_9,1,0.303770599886775
9,19,1,left_cong,1,cong,num_7,num_7,1,0.29680190002545714
9,20,0,right_cong,1,cong,num_9,num_9,1,0.3173261000774801
9,21,2,right_incg,0,incg,num_7,num_7,1,0.4099120998289436
9,22,2,right_incg,0,incg,num_7,num_7,1,0.4287646999582648
9,23,3,left_incg,0,incg,num_9,num_9,1,0.369569200091064
9,24,3,left_incg,0,incg,num_9,num_9,1,0.38738199998624623
9,25,2,right_incg,0,incg,num_7,num_7,1,0.3513074000366032
9,26,2,right_incg,0,incg,num_7,num_7,1,0.3532968000508845
9,27,2,right_incg,0,incg,num_7,num_7,1,0.3803318999707699
9,28,2,right_incg,0,incg,num_7,num_7,1,0.31540860002860427
9,29,2,right_incg,0,incg,num_7,num_7,1,0.3973167999647558
9,30,3,left_incg,0,incg,num_9,num_9,1,0.567132500000298
9,31,3,left_incg,0,incg,num_9,num_9,1,0.41731059993617237
9,32,3,left_incg,0,incg,num_9,num_9,1,0.5089342000428587
9,33,3,left_incg,0,incg,num_9,num_9,1,0.4145765998400748
9,34,2,right_incg,0,incg,num_7,num_7,1,0.44326479989103973
9,35,3,left_incg,0,incg,num_9,num_9,1,0.4170413000974804
9,36,3,left_incg,0,incg,num_9,num_9,1,0.44849910004995763
9,37,2,right_incg,0,incg,num_7,num_7,1,0.41612050007097423
9,38,3,left_incg,0,incg,num_9,num_9,1,0.369531000033021
9,39,2,right_incg,0,incg,num_7,num_7,1,0.3962034999858588
9,40,2,right_incg,0,incg,num_7,num_7,1,0.45613480010069907
9,41,1,left_cong,1,cong,num_7,num_7,1,0.48281499999575317
9,42,1,left_cong,1,cong,num_7,num_7,1,0.4619477998930961
9,43,0,right_cong,1,cong,num_9,num_9,1,0.3967269000131637
9,44,1,left_cong,1,cong,num_7,num_7,1,0.3913022999186069
9,45,0,right_cong,1,cong,num_9,num_9,1,0.40620089997537434
9,46,2,right_incg,0,incg,num_7,num_7,1,0.3359181999694556
9,47,3,left_incg,0,incg,num_9,num_9,1,0.4043479999527335
9,48,3,left_incg,0,incg,num_9,num_9,1,0.4632164998911321
9,49,3,left_incg,0,incg,num_9,num_9,1,0.39010430010966957
9,50,3,left_incg,0,incg,num_9,num_9,1,0.36673699994571507
9,51,3,left_incg,0,incg,num_9,num_9,1,0.4354793999809772
9,52,3,left_incg,0,incg,num_9,num_9,1,0.37380019994452596
9,53,2,right_incg,0,incg,num_7,num_7,1,0.3682524999603629
9,54,3,left_incg,0,incg,num_9,num_9,1,0.42343019996769726
9,55,2,right_incg,0,incg,num_7,num_7,1,0.41347049991600215
9,56,0,right_cong,1,cong,num_9,,0,
9,57,1,left_cong,1,cong,num_7,num_7,1,0.3268877000082284
9,58,1,left_cong,1,cong,num_7,num_7,1,0.3813235000707209
9,59,1,left_cong,1,cong,num_7,num_7,1,0.454539000056684
9,60,0,right_cong,1,cong,num_9,num_9,1,0.41710829990915954
9,61,1,left_cong,1,cong,num_7,num_7,1,0.36653689993545413
9,62,0,right_cong,1,cong,num_9,num_9,1,0.3796051999088377
9,63,1,left_cong,1,cong,num_7,num_7,1,0.3215842000208795
9,64,1,left_cong,1,cong,num_7,num_7,1,0.34648169996216893
9,65,0,right_cong,1,cong,num_9,num_9,1,0.38950589997693896
9,66,2,right_incg,0,incg,num_7,num_7,1,0.3997362998779863
9,67,3,left_incg,0,incg,num_9,num_9,1,0.3610028999391943
9,68,3,left_incg,0,incg,num_9,num_9,1,0.42842500004917383
9,69,3,left_incg,0,incg,num_9,num_9,1,0.5057879001833498
9,70,3,left_incg,0,incg,num_9,num_9,1,0.47959320014342666
9,71,2,right_incg,0,incg,num_7,num_7,1,0.4147936999797821
9,72,3,left_incg,0,incg,num_9,num_9,1,0.4691801001317799
9,73,2,right_incg,0,incg,num_7,num_7,1,0.3839258998632431
9,74,2,right_incg,0,incg,num_7,num_7,1,0.5225380999036133
9,75,3,left_incg,0,incg,num_9,num_9,1,0.3974611999001354
9,76,2,right_incg,0,incg,num_7,num_7,1,0.3726105000823736
9,77,2,right_incg,0,incg,num_7,num_7,1,0.3929532999172807
9,78,3,left_incg,0,incg,num_9,num_9,1,0.4627779999282211
9,79,3,left_incg,0,incg,num_9,num_9,1,0.4599393999669701
9,80,3,left_incg,0,incg,num_9,num_9,1,0.44523519999347627
9,81,2,right_incg,0,incg,num_7,num_7,1,0.39721160009503365
9,82,3,left_incg,0,incg,num_9,num_9,1,0.4764300000388175
9,83,2,right_incg,0,incg,num_7,num_7,1,0.43847589986398816
9,84,3,left_incg,0,incg,num_9,num_9,1,0.4526507998816669
9,85,3,left_incg,0,incg,num_9,num_9,1,0.4206256999168545
9,86,1,left_cong,1,cong,num_7,num_7,1,0.3773315001744777
9,87,1,left_cong,1,cong,num_7,num_7,1,0.37468389980494976
9,88,1,left_cong,1,cong,num_7,num_7,1,0.34114979999139905
9,89,0,right_cong,1,cong,num_9,num_9,1,0.4338020998984575
9,90,0,right_cong,1,cong,num_9,num_9,1,0.38160980003885925
9,91,0,right_cong,1,cong,num_9,num_9,1,0.5888882998842746
9,92,0,right_cong,1,cong,num_9,num_9,1,0.3612429997883737
9,93,0,right_cong,1,cong,num_9,num_9,1,0.322746500140056
9,94,0,right_cong,1,cong,num_9,num_9,1,0.41089110006578267
9,95,0,right_cong,1,cong,num_9,num_9,1,0.39909869991242886
9,96,2,right_incg,0,incg,num_7,num_7,1,0.4323758000973612
9,97,2,right_incg,0,incg,num_7,num_7,1,0.37910200003534555
9,98,2,right_incg,0,incg,num_7,num_7,1,0.3299660999327898
9,99,3,left_incg,0,incg,num_9,num_9,1,0.3913689001929015
9,100,2,right_incg,0,incg,num_7,num_7,1,0.3665191000327468
10,1,0,right_cong,1,cong,num_9,num_9,1,0.42377049988135695
10,2,0,right_cong,1,cong,num_9,num_9,1,0.339486800134182
10,3,1,left_cong,1,cong,num_7,num_7,1,0.36873209988698363
10,4,1,left_cong,1,cong,num_7,num_7,1,0.3626647999044508
10,5,0,right_cong,1,cong,num_9,num_9,1,0.33709929999895394
10,6,3,left_incg,0,incg,num_9,num_9,1,0.4568654999602586
10,7,3,left_incg,0,incg,num_9,num_9,1,0.39904099982231855
10,8,2,right_incg,0,incg,num_7,num_7,1,0.3263784002047032
10,9,3,left_incg,0,incg,num_9,num_9,1,0.40241979993879795
10,10,2,right_incg,0,incg,num_7,num_7,1,0.4026227998547256
10,11,0,right_cong,1,cong,num_9,num_9,1,0.4851832001004368
10,12,0,right_cong,1,cong,num_9,num_9,1,0.3340608000289649
10,13,0,right_cong,1,cong,num_9,num_9,1,0.33884139987640083
10,14,0,right_cong,1,cong,num_9,num_9,1,0.3165738000534475
10,15,1,left_cong,1,cong,num_7,num_7,1,0.3991924000438303
10,16,1,left_cong,1,cong,num_7,num_7,1,0.3847147000487894
10,17,0,right_cong,1,cong,num_9,num_9,1,0.39422939997166395
10,18,0,right_cong,1,cong,num_9,num_9,1,0.37203880003653467
10,19,1,left_cong,1,cong,num_7,num_7,1,0.37941010016947985
10,20,1,left_cong,1,cong,num_7,num_7,1,0.46917530009523034
10,21,3,left_incg,0,incg,num_9,num_9,1,0.42657689983025193
10,22,2,right_incg,0,incg,num_7,num_7,1,0.37016969989053905
10,23,2,right_incg,0,incg,num_7,num_7,1,0.4550722998101264
10,24,3,left_incg,0,incg,num_9,num_9,1,0.39389519998803735
10,25,2,right_incg,0,incg,num_7,num_7,1,0.3890912998467684
10,26,2,right_incg,0,incg,num_7,num_7,1,0.4044370998162776
10,27,2,right_incg,0,incg,num_7,num_7,1,0.3845167001709342
10,28,2,right_incg,0,incg,num_7,num_7,1,0.3995236998889595
10,29,2,right_incg,0,incg,num_7,num_7,1,0.4479107998777181
10,30,2,right_incg,0,incg,num_7,num_7,1,0.4785363001283258
10,31,0,right_cong,1,cong,num_9,num_9,1,0.38440530002117157
10,32,1,left_cong,1,cong,num_7,num_7,1,0.3775082998909056
10,33,0,right_cong,1,cong,num_9,num_9,1,0.35848210006952286
10,34,1,left_cong,1,cong,num_7,num_7,1,0.30499129998497665
10,35,0,right_cong,1,cong,num_9,num_9,1,0.38251589983701706
10,36,1,left_cong,1,cong,num_7,num_7,1,0.34438230004161596
10,37,0,right_cong,1,cong,num_9,num_9,1,0.2951418999582529
10,38,0,right_cong,1,cong,num_9,num_9,1,0.352311700116843
10,39,0,right_cong,1,cong,num_9,num_9,1,0.3109313999302685
10,40,1,left_cong,1,cong,num_7,num_7,1,0.4176663998514414
10,41,0,right_cong,1,cong,num_9,num_9,1,0.3660941000562161
10,42,1,left_cong,1,cong,num_7,num_7,1,0.2807643997948617
10,43,0,right_cong,1,cong,num_9,num_9,1,0.30545779992826283
10,44,0,right_cong,1,cong,num_9,num_9,1,0.47143559996038675
10,45,1,left_cong,1,cong,num_7,num_7,1,0.40232840017415583
10,46,2,right_incg,0,incg,num_7,num_7,1,0.373293099924922
10,47,3,left_incg,0,incg,num_9,num_9,1,0.36234620003961027
10,48,3,left_incg,0,incg,num_9,num_9,1,0.4434342999011278
10,49,2,right_incg,0,incg,num_7,num_7,1,0.375652699964121
10,50,2,right_incg,0,incg,num_7,num_7,1,0.36859799991361797
10,51,0,right_cong,1,cong,num_9,num_9,1,0.39662130014039576
10,52,1,left_cong,1,cong,num_7,num_7,1,0.3351231999695301
10,53,1,left_cong,1,cong,num_7,num_7,1,0.31687829992733896
10,54,0,right_cong,1,cong,num_9,num_9,1,0.36793669988401234
10,55,1,left_cong,1,cong,num_7,num_7,1,0.33159130020067096
10,56,3,left_incg,0,incg,num_9,num_9,1,0.4511843000072986
10,57,2,right_incg,0,incg,num_7,num_7,1,0.38718380010686815
10,58,3,left_incg,0,incg,num_9,num_9,1,0.3574729999527335
10,59,3,left_incg,0,incg,num_9,num_9,1,0.3607314000837505
10,60,2,right_incg,0,incg,num_7,num_7,1,0.858643899904564
10,61,2,right_incg,0,incg,num_7,num_7,1,0.4104671000968665
10,62,3,left_incg,0,incg,num_9,num_9,1,0.42615219997242093
10,63,2,right_incg,0,incg,num_7,num_7,1,0.3256245998200029
10,64,2,right_incg,0,incg,num_7,num_7,1,0.39223890006542206
10,65,2,right_incg,0,incg,num_7,num_7,1,0.360745299840346
10,66,0,right_cong,1,cong,num_9,num_9,1,0.35094080003909767
10,67,0,right_cong,1,cong,num_9,num_9,1,0.34834009991027415
10,68,0,right_cong,1,cong,num_9,num_9,1,0.35326569993048906
10,69,0,right_cong,1,cong,num_9,num_9,1,0.3879383997991681
10,70,1,left_cong,1,cong,num_7,num_7,1,0.3936286000534892
10,71,0,right_cong,1,cong,num_9,num_9,1,0.34553060005418956
10,72,1,left_cong,1,cong,num_7,num_7,1,0.28787360014393926
10,73,0,right_cong,1,cong,num_9,num_9,1,0.36835729982703924
10,74,0,right_cong,1,cong,num_9,num_9,1,0.43257790012285113
10,75,1,left_cong,1,cong,num_7,num_7,1,0.3714952999725938
10,76,2,right_incg,0,incg,num_7,num_7,1,0.3731166000943631
10,77,2,right_incg,0,incg,num_7,num_7,1,0.3974301000125706
10,78,3,left_incg,0,incg,num_9,num_9,1,0.379555799998343
10,79,2,right_incg,0,incg,num_7,num_7,1,0.35602000006474555
10,80,3,left_incg,0,incg,num_9,num_9,1,0.3895223999861628
10,81,2,right_incg,0,incg,num_7,num_7,1,0.3465470999944955
10,82,2,right_incg,0,incg,num_7,num_7,1,0.3791072000749409
10,83,3,left_incg,0,incg,num_9,num_9,1,0.4938195999711752
10,84,2,right_incg,0,incg,num_7,num_7,1,0.4965683000627905
10,85,3,left_incg,0,incg,num_9,num_9,1,0.41098649986088276
10,86,1,left_cong,1,cong,num_7,num_7,1,0.3784770001657307
10,87,1,left_cong,1,cong,num_7,num_7,1,0.3496600999496877
10,88,1,left_cong,1,cong,num_7,num_7,1,0.3281455000396818
10,89,1,left_cong,1,cong,num_7,num_7,1,0.30447329999879
10,90,1,left_cong,1,cong,num_7,num_7,1,0.3766359998844564
10,91,0,right_cong,1,cong,num_9,num_9,1,0.385351600125432
10,92,0,right_cong,1,cong,num_9,num_9,1,0.34277840005233884
10,93,0,right_cong,1,cong,num_9,num_9,1,0.33060240000486374
10,94,0,right_cong,1,cong,num_9,num_9,1,0.34777479991316795
10,95,0,right_cong,1,cong,num_9,num_9,1,0.3301174999214709
10,96,3,left_incg,0,incg,num_9,num_9,1,0.39760130015201867
10,97,3,left_incg,0,incg,num_9,num_9,1,0.40080080018378794
10,98,3,left_incg,0,incg,num_9,num_9,1,0.34428489999845624
10,99,3,left_incg,0,incg,num_9,num_9,1,0.3613939001224935
10,100,3,left_incg,0,incg,num_9,num_9,1,0.3650311999954283
