block,trial,trialtype,trialtype_string,cuetype,cuetype_string,correct_key,key_pressed,is_resp_corr,reaction_time
1,1,1,left_cong,1,cong,num_7,num_7,1,0.43549019983038306
1,2,1,left_cong,1,cong,num_7,num_7,1,0.3684070003218949
1,3,1,left_cong,1,cong,num_7,num_7,1,0.35262460028752685
1,4,1,left_cong,1,cong,num_7,num_7,1,0.3502302998676896
1,5,0,right_cong,1,cong,num_9,num_9,1,0.42220660019665956
1,6,3,left_incg,0,incg,num_9,num_9,1,0.4925263999029994
1,7,2,right_incg,0,incg,num_7,num_7,1,0.4146501002833247
1,8,2,right_incg,0,incg,num_7,num_7,1,0.46530039981007576
1,9,3,left_incg,0,incg,num_9,num_9,1,0.4603257002308965
1,10,2,right_incg,0,incg,num_7,num_7,1,0.37620830023661256
1,11,3,left_incg,0,incg,num_9,num_9,1,0.4437665999867022
1,12,2,right_incg,0,incg,num_7,num_7,1,0.38260840019211173
1,13,3,left_incg,0,incg,num_9,num_9,1,0.458700199611485
1,14,2,right_incg,0,incg,num_7,,0,
1,15,3,left_incg,0,incg,num_9,num_9,1,0.40812989976257086
1,16,0,right_cong,1,cong,num_9,num_7,0,0.4154672999866307
1,17,1,left_cong,1,cong,num_7,num_7,1,0.5365996002219617
1,18,0,right_cong,1,cong,num_9,num_9,1,0.4005511002615094
1,19,1,left_cong,1,cong,num_7,num_7,1,0.37103720009326935
1,20,0,right_cong,1,cong,num_9,num_9,1,0.39156810007989407
1,21,2,right_incg,0,incg,num_7,num_9,0,0.5733742001466453
1,22,2,right_incg,0,incg,num_7,num_7,1,0.5362933999858797
1,23,3,left_incg,0,incg,num_9,num_9,1,0.7220173999667168
1,24,3,left_incg,0,incg,num_9,num_9,1,0.7895067003555596
1,25,2,right_incg,0,incg,num_7,num_7,1,0.42724369978532195
1,26,2,right_incg,0,incg,num_7,num_7,1,0.9381455001421273
1,27,2,right_incg,0,incg,num_7,num_7,1,0.48247750010341406
1,28,2,right_incg,0,incg,num_7,num_7,1,0.5970373996533453
1,29,2,right_incg,0,incg,num_7,num_7,1,0.416724800132215
1,30,3,left_incg,0,incg,num_9,num_9,1,0.43774119997397065
1,31,3,left_incg,0,incg,num_9,num_9,1,0.5335460999049246
1,32,3,left_incg,0,incg,num_9,num_9,1,0.3925621001981199
1,33,3,left_incg,0,incg,num_9,num_9,1,0.40007129963487387
1,34,2,right_incg,0,incg,num_7,num_7,1,0.5193718001246452
1,35,3,left_incg,0,incg,num_9,num_9,1,0.4493594001978636
1,36,3,left_incg,0,incg,num_9,num_9,1,0.5014806999824941
1,37,2,right_incg,0,incg,num_7,num_7,1,0.4351047999225557
1,38,3,left_incg,0,incg,num_9,num_9,1,0.40240770019590855
1,39,2,right_incg,0,incg,num_7,num_7,1,0.3625713996589184
1,40,2,right_incg,0,incg,num_7,num_7,1,0.3766501001082361
1,41,1,left_cong,1,cong,num_7,num_9,0,0.47469320008531213
1,42,1,left_cong,1,cong,num_7,num_7,1,0.39893680019304156
1,43,0,right_cong,1,cong,num_9,num_9,1,0.41899289982393384
1,44,1,left_cong,1,cong,num_7,num_7,1,0.4454613998532295
1,45,0,right_cong,1,cong,num_9,num_9,1,0.4037100002169609
1,46,2,right_incg,0,incg,num_7,num_7,1,0.6615224000997841
1,47,3,left_incg,0,incg,num_9,num_9,1,0.4059279002249241
1,48,3,left_incg,0,incg,num_9,num_7,0,0.5095436000265181
1,49,3,left_incg,0,incg,num_9,num_9,1,0.48734099976718426
1,50,3,left_incg,0,incg,num_9,num_9,1,0.4440864999778569
1,51,3,left_incg,0,incg,num_9,num_9,1,0.6745513998903334
1,52,3,left_incg,0,incg,num_9,num_9,1,0.4371871999464929
1,53,2,right_incg,0,incg,num_7,num_7,1,0.4469773001037538
1,54,3,left_incg,0,incg,num_9,num_9,1,0.44009399972856045
1,55,2,right_incg,0,incg,num_7,num_7,1,0.49635080015286803
1,56,0,right_cong,1,cong,num_9,num_9,1,0.5095692998729646
1,57,1,left_cong,1,cong,num_7,num_7,1,0.35741820000112057
1,58,1,left_cong,1,cong,num_7,num_7,1,0.4137810003012419
1,59,1,left_cong,1,cong,num_7,num_7,1,0.34757359977811575
1,60,0,right_cong,1,cong,num_9,num_9,1,0.41772650042548776
1,61,1,left_cong,1,cong,num_7,num_7,1,0.34782939963042736
1,62,0,right_cong,1,cong,num_9,num_9,1,0.4122622003778815
1,63,1,left_cong,1,cong,num_7,num_7,1,0.4161382997408509
1,64,1,left_cong,1,cong,num_7,num_7,1,0.41703480016440153
1,65,0,right_cong,1,cong,num_9,num_9,1,0.4432771001011133
1,66,2,right_incg,0,incg,num_7,num_7,1,0.4361155997030437
1,67,3,left_incg,0,incg,num_9,num_9,1,0.41717310016974807
1,68,3,left_incg,0,incg,num_9,num_9,1,0.4655833998695016
1,69,3,left_incg,0,incg,num_9,num_9,1,0.3588414997793734
1,70,3,left_incg,0,incg,num_9,num_9,1,0.4915211000479758
1,71,2,right_incg,0,incg,num_7,num_7,1,0.5042953998781741
1,72,3,left_incg,0,incg,num_9,num_9,1,0.3930848999880254
1,73,2,right_incg,0,incg,num_7,num_7,1,0.43988579977303743
1,74,2,right_incg,0,incg,num_7,num_9,0,1.036644599866122
1,75,3,left_incg,0,incg,num_9,num_9,1,0.596623900346458
1,76,2,right_incg,0,incg,num_7,num_7,1,0.7296366998925805
1,77,2,right_incg,0,incg,num_7,num_7,1,0.5201580999419093
1,78,3,left_incg,0,incg,num_9,num_9,1,0.46802050014957786
1,79,3,left_incg,0,incg,num_9,num_9,1,0.50221800012514
1,80,3,left_incg,0,incg,num_9,num_9,1,0.35022580018267035
1,81,2,right_incg,0,incg,num_7,num_7,1,0.6426283000037074
1,82,3,left_incg,0,incg,num_9,num_9,1,0.496951499953866
1,83,2,right_incg,0,incg,num_7,num_7,1,0.5012058997526765
1,84,3,left_incg,0,incg,num_9,num_9,1,0.3742492999881506
1,85,3,left_incg,0,incg,num_9,num_9,1,0.4489333997480571
1,86,1,left_cong,1,cong,num_7,num_7,1,0.48521170020103455
1,87,1,left_cong,1,cong,num_7,num_7,1,0.33645320031791925
1,88,1,left_cong,1,cong,num_7,num_7,1,0.2619703998789191
1,89,0,right_cong,1,cong,num_9,num_9,1,0.3659800998866558
1,90,0,right_cong,1,cong,num_9,num_9,1,0.49041870003566146
1,91,0,right_cong,1,cong,num_9,num_9,1,0.4518778999336064
1,92,0,right_cong,1,cong,num_9,num_9,1,0.3343293000943959
1,93,0,right_cong,1,cong,num_9,num_9,1,0.3117937003262341
1,94,0,right_cong,1,cong,num_9,num_9,1,0.3106116000562906
1,95,0,right_cong,1,cong,num_9,num_9,1,0.34618710028007627
1,96,2,right_incg,0,incg,num_7,num_7,1,0.556398999877274
1,97,2,right_incg,0,incg,num_7,num_7,1,0.4002086999826133
1,98,2,right_incg,0,incg,num_7,num_7,1,0.4048631996847689
1,99,3,left_incg,0,incg,num_9,num_9,1,0.5264181001111865
1,100,2,right_incg,0,incg,num_7,num_7,1,0.6775106000714004
2,1,0,right_cong,1,cong,num_9,num_9,1,0.48624640004709363
2,2,1,left_cong,1,cong,num_7,num_7,1,0.3914755000732839
2,3,0,right_cong,1,cong,num_9,num_9,1,0.35728250024840236
2,4,1,left_cong,1,cong,num_7,num_7,1,0.34141730004921556
2,5,0,right_cong,1,cong,num_9,num_9,1,0.28850929997861385
2,6,2,right_incg,0,incg,num_7,num_7,1,0.4403249002061784
2,7,2,right_incg,0,incg,num_7,num_7,1,0.5794790000654757
2,8,2,right_incg,0,incg,num_7,num_7,1,0.4005079003982246
2,9,3,left_incg,0,incg,num_9,num_9,1,0.8087943997234106
2,10,2,right_incg,0,incg,num_7,num_7,1,0.3805505000054836
2,11,0,right_cong,1,cong,num_9,num_9,1,0.5062807998619974
2,12,1,left_cong,1,cong,num_7,num_7,1,0.32964689983054996
2,13,0,right_cong,1,cong,num_9,num_9,1,0.4071446000598371
2,14,0,right_cong,1,cong,num_9,num_9,1,0.4393195998854935
2,15,1,left_cong,1,cong,num_7,num_7,1,0.41455169999971986
2,16,3,left_incg,0,incg,num_9,num_7,0,0.5807246998883784
2,17,3,left_incg,0,incg,num_9,num_9,1,0.8655607001855969
2,18,3,left_incg,0,incg,num_9,num_9,1,0.3724830998107791
2,19,2,right_incg,0,incg,num_7,num_7,1,0.4618803998455405
2,20,2,right_incg,0,incg,num_7,num_7,1,0.5084516000933945
2,21,1,left_cong,1,cong,num_7,num_7,1,0.39173150015994906
2,22,1,left_cong,1,cong,num_7,num_7,1,0.4495123000815511
2,23,0,right_cong,1,cong,num_9,num_9,1,0.41268419986590743
2,24,1,left_cong,1,cong,num_7,num_7,1,0.3629827001132071
2,25,0,right_cong,1,cong,num_9,num_9,1,0.33878570003435016
2,26,2,right_incg,0,incg,num_7,num_7,1,0.5397990001365542
2,27,2,right_incg,0,incg,num_7,num_7,1,0.49107519956305623
2,28,2,right_incg,0,incg,num_7,num_7,1,0.4303859998472035
2,29,2,right_incg,0,incg,num_7,num_7,1,0.38865419989451766
2,30,2,right_incg,0,incg,num_7,num_7,1,0.33948530023917556
2,31,0,right_cong,1,cong,num_9,num_9,1,0.5352641995996237
2,32,0,right_cong,1,cong,num_9,num_9,1,0.36173419980332255
2,33,1,left_cong,1,cong,num_7,num_7,1,0.40914470003917813
2,34,1,left_cong,1,cong,num_7,num_7,1,0.3790440000593662
2,35,0,right_cong,1,cong,num_9,num_9,1,0.32573699997738004
2,36,1,left_cong,1,cong,num_7,num_7,1,0.4084787000901997
2,37,1,left_cong,1,cong,num_7,num_7,1,0.30361320031806827
2,38,1,left_cong,1,cong,num_7,num_7,1,0.3383561000227928
2,39,0,right_cong,1,cong,num_9,num_9,1,0.3171582999639213
2,40,1,left_cong,1,cong,num_7,num_7,1,0.33928299974650145
2,41,2,right_incg,0,incg,num_7,num_7,1,0.46347730001434684
2,42,2,right_incg,0,incg,num_7,num_7,1,0.35581470001488924
2,43,3,left_incg,0,incg,num_9,num_7,0,0.2991900001652539
2,44,3,left_incg,0,incg,num_9,num_9,1,0.5229006996378303
2,45,2,right_incg,0,incg,num_7,num_7,1,0.47328999964520335
2,46,2,right_incg,0,incg,num_7,num_7,1,0.47081209998577833
2,47,3,left_incg,0,incg,num_9,num_9,1,0.46925990004092455
2,48,3,left_incg,0,incg,num_9,num_9,1,0.5461570001207292
2,49,3,left_incg,0,incg,num_9,num_9,1,0.5398444999009371
2,50,3,left_incg,0,incg,num_9,num_9,1,0.43948329985141754
2,51,2,right_incg,0,incg,num_7,num_7,1,0.6345561998896301
2,52,2,right_incg,0,incg,num_7,num_7,1,0.41384320007637143
2,53,3,left_incg,0,incg,num_9,num_9,1,0.43358050007373095
2,54,3,left_incg,0,incg,num_9,num_9,1,0.46925940038636327
2,55,2,right_incg,0,incg,num_7,num_7,1,0.5158718000166118
2,56,2,right_incg,0,incg,num_7,num_7,1,0.487966800108552
2,57,3,left_incg,0,incg,num_9,num_9,1,0.4571762001141906
2,58,3,left_incg,0,incg,num_9,num_9,1,0.4542975998483598
2,59,3,left_incg,0,incg,num_9,num_9,1,0.42303929990157485
2,60,2,right_incg,0,incg,num_7,num_7,1,0.48448630003258586
2,61,1,left_cong,1,cong,num_7,num_7,1,0.43317069998010993
2,62,0,right_cong,1,cong,num_9,num_9,1,0.5002536000683904
2,63,1,left_cong,1,cong,num_7,num_7,1,0.365113299805671
2,64,0,right_cong,1,cong,num_9,num_9,1,0.2677410999312997
2,65,1,left_cong,1,cong,num_7,num_7,1,0.28678759979084134
2,66,0,right_cong,1,cong,num_9,num_9,1,0.4275297001004219
2,67,1,left_cong,1,cong,num_7,num_7,1,0.3961482001468539
2,68,1,left_cong,1,cong,num_7,num_7,1,0.3770777997560799
2,69,0,right_cong,1,cong,num_9,num_9,1,0.3765576998703182
2,70,0,right_cong,1,cong,num_9,num_9,1,0.3474180996417999
2,71,2,right_incg,0,incg,num_7,num_7,1,0.8043598998337984
2,72,2,right_incg,0,incg,num_7,num_7,1,0.3507517999969423
2,73,2,right_incg,0,incg,num_7,num_7,1,0.4417852000333369
2,74,3,left_incg,0,incg,num_9,num_9,1,0.4803035999648273
2,75,2,right_incg,0,incg,num_7,num_7,1,0.4410399002954364
2,76,2,right_incg,0,incg,num_7,num_7,1,0.4700560001656413
2,77,3,left_incg,0,incg,num_9,num_9,1,0.5029665003530681
2,78,3,left_incg,0,incg,num_9,num_9,1,0.42911279993131757
2,79,3,left_incg,0,incg,num_9,num_9,1,0.4095359002240002
2,80,2,right_incg,0,incg,num_7,num_7,1,0.4900975995697081
2,81,3,left_incg,0,incg,num_9,num_9,1,0.47355329990386963
2,82,3,left_incg,0,incg,num_9,num_9,1,0.4282590998336673
2,83,2,right_incg,0,incg,num_7,num_7,1,0.4584689000621438
2,84,3,left_incg,0,incg,num_9,num_9,1,0.4530809000134468
2,85,2,right_incg,0,incg,num_7,num_7,1,0.41459459997713566
2,86,1,left_cong,1,cong,num_7,num_9,0,0.5600323001854122
2,87,1,left_cong,1,cong,num_7,num_9,0,0.3584159002639353
2,88,1,left_cong,1,cong,num_7,num_9,0,0.30009869998320937
2,89,1,left_cong,1,cong,num_7,num_9,0,0.3154283002950251
2,90,0,right_cong,1,cong,num_9,num_7,0,0.4738030000589788
2,91,1,left_cong,1,cong,num_7,num_7,1,0.4376913998275995
2,92,1,left_cong,1,cong,num_7,num_7,1,0.3503773999400437
2,93,1,left_cong,1,cong,num_7,num_7,1,0.31053399993106723
2,94,0,right_cong,1,cong,num_9,,0,
2,95,1,left_cong,1,cong,num_7,num_7,1,0.42679940024390817
2,96,2,right_incg,0,incg,num_7,num_7,1,0.4115638001821935
2,97,3,left_incg,0,incg,num_9,num_9,1,0.41528020007535815
2,98,2,right_incg,0,incg,num_7,num_7,1,0.3312483998015523
2,99,3,left_incg,0,incg,num_9,num_9,1,0.4328888999298215
2,100,3,left_incg,0,incg,num_9,num_9,1,0.5359813999384642
3,1,2,right_incg,0,incg,num_7,num_7,1,0.47986119985580444
3,2,2,right_incg,0,incg,num_7,num_7,1,0.4536681999452412
3,3,3,left_incg,0,incg,num_9,num_9,1,0.48895400017499924
3,4,3,left_incg,0,incg,num_9,num_9,1,0.5002461997792125
3,5,3,left_incg,0,incg,num_9,num_9,1,0.4658234999515116
3,6,2,right_incg,0,incg,num_7,num_7,1,0.7146439999341965
3,7,3,left_incg,0,incg,num_9,num_9,1,0.4068993995897472
3,8,3,left_incg,0,incg,num_9,num_9,1,0.4035646999254823
3,9,2,right_incg,0,incg,num_7,num_7,1,0.4952635997906327
3,10,2,right_incg,0,incg,num_7,num_7,1,0.530251800082624
3,11,1,left_cong,1,cong,num_7,num_7,1,0.6568227000534534
3,12,1,left_cong,1,cong,num_7,num_7,1,0.40736819989979267
3,13,1,left_cong,1,cong,num_7,num_7,1,0.30168210016563535
3,14,0,right_cong,1,cong,num_9,num_9,1,0.43427120009437203
3,15,0,right_cong,1,cong,num_9,num_9,1,0.40871400013566017
3,16,1,left_cong,1,cong,num_7,num_7,1,0.4221378997899592
3,17,0,right_cong,1,cong,num_9,num_9,1,0.36601970018818974
3,18,0,right_cong,1,cong,num_9,num_9,1,0.5071745002642274
3,19,0,right_cong,1,cong,num_9,num_9,1,0.36172330006957054
3,20,0,right_cong,1,cong,num_9,num_9,1,0.36653830017894506
3,21,2,right_incg,0,incg,num_7,num_7,1,0.5272546000778675
3,22,2,right_incg,0,incg,num_7,num_7,1,0.4629253000020981
3,23,3,left_incg,0,incg,num_9,num_9,1,0.43611499993130565
3,24,2,right_incg,0,incg,num_7,num_7,1,0.48635700019076467
3,25,3,left_incg,0,incg,num_9,num_9,1,0.37399089988321066
3,26,0,right_cong,1,cong,num_9,num_9,1,0.47285909997299314
3,27,0,right_cong,1,cong,num_9,num_9,1,0.41024430003017187
3,28,1,left_cong,1,cong,num_7,num_7,1,0.45266469987109303
3,29,0,right_cong,1,cong,num_9,num_9,1,0.31740189995616674
3,30,0,right_cong,1,cong,num_9,num_9,1,0.4187992997467518
3,31,2,right_incg,0,incg,num_7,num_9,0,0.40970430010929704
3,32,2,right_incg,0,incg,num_7,num_7,1,0.5220210002735257
3,33,2,right_incg,0,incg,num_7,num_7,1,0.3626578999683261
3,34,3,left_incg,0,incg,num_9,num_9,1,0.5160528002306819
3,35,2,right_incg,0,incg,num_7,num_7,1,0.6030812999233603
3,36,1,left_cong,1,cong,num_7,num_7,1,0.5483638998121023
3,37,1,left_cong,1,cong,num_7,num_7,1,0.444597200024873
3,38,1,left_cong,1,cong,num_7,num_7,1,0.43285509990528226
3,39,1,left_cong,1,cong,num_7,num_7,1,0.45280859991908073
3,40,0,right_cong,1,cong,num_9,num_9,1,0.5216856999322772
3,41,2,right_incg,0,incg,num_7,num_7,1,0.5793603998608887
3,42,3,left_incg,0,incg,num_9,num_9,1,0.4292465001344681
3,43,2,right_incg,0,incg,num_7,num_7,1,0.38427080027759075
3,44,3,left_incg,0,incg,num_9,num_9,1,0.37940929969772696
3,45,2,right_incg,0,incg,num_7,num_7,1,0.3699575001373887
3,46,1,left_cong,1,cong,num_7,num_7,1,0.43784839985892177
3,47,1,left_cong,1,cong,num_7,num_7,1,0.4417792996391654
3,48,1,left_cong,1,cong,num_7,num_7,1,0.3617577003315091
3,49,0,right_cong,1,cong,num_9,num_9,1,0.4160841000266373
3,50,1,left_cong,1,cong,num_7,num_7,1,0.3129616999067366
3,51,0,right_cong,1,cong,num_9,num_9,1,0.44834759971126914
3,52,0,right_cong,1,cong,num_9,num_9,1,0.43707440001890063
3,53,0,right_cong,1,cong,num_9,num_9,1,0.439170700032264
3,54,0,right_cong,1,cong,num_9,num_9,1,0.34179980028420687
3,55,0,right_cong,1,cong,num_9,num_9,1,0.3117247996851802
3,56,3,left_incg,0,incg,num_9,num_7,0,0.5035096001811326
3,57,3,left_incg,0,incg,num_9,num_7,0,0.3282233001664281
3,58,3,left_incg,0,incg,num_9,num_7,0,0.3404434002004564
3,59,2,right_incg,0,incg,num_7,num_9,0,0.36307610012590885
3,60,2,right_incg,0,incg,num_7,num_9,0,0.5082953996025026
3,61,3,left_incg,0,incg,num_9,num_9,1,0.6406425000168383
3,62,3,left_incg,0,incg,num_9,num_9,1,0.460841600317508
3,63,3,left_incg,0,incg,num_9,num_9,1,0.37027059961110353
3,64,3,left_incg,0,incg,num_9,num_9,1,0.3534145001322031
3,65,3,left_incg,0,incg,num_9,num_9,1,0.369072699919343
3,66,1,left_cong,1,cong,num_7,num_7,1,0.4566039997152984
3,67,0,right_cong,1,cong,num_9,num_9,1,0.2913458999246359
3,68,1,left_cong,1,cong,num_7,num_7,1,0.31947269989177585
3,69,0,right_cong,1,cong,num_9,num_9,1,0.2798187998123467
3,70,0,right_cong,1,cong,num_9,num_9,1,0.3942686999216676
3,71,3,left_incg,0,incg,num_9,num_9,1,0.5689524002373219
3,72,2,right_incg,0,incg,num_7,num_7,1,0.500037900172174
3,73,2,right_incg,0,incg,num_7,num_7,1,0.5543319000862539
3,74,2,right_incg,0,incg,num_7,num_7,1,0.4590982999652624
3,75,3,left_incg,0,incg,num_9,num_9,1,0.4480034997686744
3,76,0,right_cong,1,cong,num_9,num_9,1,0.3504085997119546
3,77,1,left_cong,1,cong,num_7,num_7,1,0.42152389977127314
3,78,0,right_cong,1,cong,num_9,num_9,1,0.32421599980443716
3,79,1,left_cong,1,cong,num_7,num_7,1,0.44805860007181764
3,80,1,left_cong,1,cong,num_7,num_7,1,0.47437690012156963
3,81,1,left_cong,1,cong,num_7,num_7,1,0.45562850032001734
3,82,0,right_cong,1,cong,num_9,num_9,1,0.3730379999615252
3,83,1,left_cong,1,cong,num_7,,0,
3,84,0,right_cong,1,cong,num_9,num_9,1,0.3700469001196325
3,85,1,left_cong,1,cong,num_7,num_7,1,0.34401259990409017
3,86,2,right_incg,0,incg,num_7,num_9,0,0.3879158003255725
3,87,3,left_incg,0,incg,num_9,num_7,0,0.30751929990947247
3,88,3,left_incg,0,incg,num_9,num_7,0,0.5420317999087274
3,89,3,left_incg,0,incg,num_9,num_7,0,0.3520289999432862
3,90,2,right_incg,0,incg,num_7,num_9,0,0.3766851001419127
3,91,3,left_incg,0,incg,num_9,num_7,0,0.4285436999052763
3,92,2,right_incg,0,incg,num_7,num_9,0,0.33878459967672825
3,93,2,right_incg,0,incg,num_7,num_9,0,0.4424133999273181
3,94,3,left_incg,0,incg,num_9,num_7,0,0.422666999977082
3,95,3,left_incg,0,incg,num_9,num_7,0,0.38173240004107356
3,96,1,left_cong,1,cong,num_7,num_7,1,0.41668060002848506
3,97,1,left_cong,1,cong,num_7,num_7,1,0.4573094001971185
3,98,1,left_cong,1,cong,num_7,num_7,1,0.3098941999487579
3,99,0,right_cong,1,cong,num_9,num_7,0,0.304152799770236
3,100,0,right_cong,1,cong,num_9,num_9,1,0.48549790028482676
4,1,2,right_incg,0,incg,num_7,num_7,1,0.375798000022769
4,2,2,right_incg,0,incg,num_7,num_7,1,0.41292970022186637
4,3,2,right_incg,0,incg,num_7,num_7,1,0.3689813003875315
4,4,2,right_incg,0,incg,num_7,num_7,1,0.34411290008574724
4,5,3,left_incg,0,incg,num_9,num_9,1,0.453341799788177
4,6,2,right_incg,0,incg,num_7,num_7,1,0.41992340004071593
4,7,2,right_incg,0,incg,num_7,num_7,1,0.41156339971348643
4,8,2,right_incg,0,incg,num_7,num_7,1,0.358782900031656
4,9,3,left_incg,0,incg,num_9,num_9,1,0.48089340003207326
4,10,2,right_incg,0,incg,num_7,num_7,1,0.45329449977725744
4,11,0,right_cong,1,cong,num_9,num_9,1,0.5072200000286102
4,12,0,right_cong,1,cong,num_9,num_9,1,0.550811099819839
4,13,1,left_cong,1,cong,num_7,num_7,1,0.4051958001218736
4,14,1,left_cong,1,cong,num_7,num_7,1,0.37760799983516335
4,15,0,right_cong,1,cong,num_9,num_9,1,0.44000469986349344
4,16,3,left_incg,0,incg,num_9,num_7,0,0.6898580999113619
4,17,3,left_incg,0,incg,num_9,num_9,1,0.5103019000962377
4,18,2,right_incg,0,incg,num_7,num_7,1,0.43297600001096725
4,19,3,left_incg,0,incg,num_9,num_9,1,0.43520790012553334
4,20,3,left_incg,0,incg,num_9,num_9,1,0.4761943002231419
4,21,3,left_incg,0,incg,num_9,num_9,1,0.4260301999747753
4,22,2,right_incg,0,incg,num_7,num_7,1,0.6552932001650333
4,23,2,right_incg,0,incg,num_7,num_7,1,0.47690120013430715
4,24,3,left_incg,0,incg,num_9,num_9,1,0.42489399993792176
4,25,3,left_incg,0,incg,num_9,num_9,1,0.43802440026775
4,26,0,right_cong,1,cong,num_9,num_9,1,0.5229108002968132
4,27,1,left_cong,1,cong,num_7,num_7,1,0.4137704996392131
4,28,1,left_cong,1,cong,num_7,num_7,1,0.5088790003210306
4,29,1,left_cong,1,cong,num_7,num_7,1,0.3688453999347985
4,30,0,right_cong,1,cong,num_9,num_9,1,0.3508783997967839
4,31,2,right_incg,0,incg,num_7,num_7,1,0.4799092998728156
4,32,3,left_incg,0,incg,num_9,num_9,1,0.4344005002640188
4,33,2,right_incg,0,incg,num_7,num_7,1,0.4328950000926852
4,34,3,left_incg,0,incg,num_9,num_9,1,0.36497219977900386
4,35,2,right_incg,0,incg,num_7,num_7,1,0.4074102998711169
4,36,1,left_cong,1,cong,num_7,num_7,1,0.38650309992954135
4,37,0,right_cong,1,cong,num_9,num_9,1,0.5287536000832915
4,38,1,left_cong,1,cong,num_7,num_7,1,0.3220624001696706
4,39,0,right_cong,1,cong,num_9,num_9,1,0.3677689000032842
4,40,1,left_cong,1,cong,num_7,num_7,1,0.29397560004144907
4,41,2,right_incg,0,incg,num_7,num_7,1,0.41487660026177764
4,42,2,right_incg,0,incg,num_7,num_7,1,0.4906478002667427
4,43,2,right_incg,0,incg,num_7,num_7,1,0.3467749999836087
4,44,2,right_incg,0,incg,num_7,num_7,1,0.29941480001434684
4,45,3,left_incg,0,incg,num_9,num_9,1,0.5034317998215556
4,46,2,right_incg,0,incg,num_7,num_7,1,0.45529539976269007
4,47,2,right_incg,0,incg,num_7,num_7,1,0.4398197000846267
4,48,2,right_incg,0,incg,num_7,num_7,1,0.5080304001457989
4,49,2,right_incg,0,incg,num_7,num_7,1,0.5184852001257241
4,50,2,right_incg,0,incg,num_7,num_7,1,0.3048586999066174
4,51,1,left_cong,1,cong,num_7,num_7,1,0.49153529992327094
4,52,1,left_cong,1,cong,num_7,num_7,1,0.3871406000107527
4,53,0,right_cong,1,cong,num_9,num_9,1,0.48613290023058653
4,54,0,right_cong,1,cong,num_9,num_9,1,0.39922009967267513
4,55,0,right_cong,1,cong,num_9,num_9,1,0.4209211999550462
4,56,2,right_incg,0,incg,num_7,num_7,1,0.6343771000392735
4,57,2,right_incg,0,incg,num_7,num_7,1,0.41314460011199117
4,58,3,left_incg,0,incg,num_9,num_9,1,0.5615326003171504
4,59,2,right_incg,0,incg,num_7,num_7,1,0.3760700998827815
4,60,3,left_incg,0,incg,num_9,num_9,1,0.39225380029529333
4,61,2,right_incg,0,incg,num_7,num_7,1,0.49314319994300604
4,62,3,left_incg,0,incg,num_9,,0,
4,63,3,left_incg,0,incg,num_9,num_9,1,0.500286300200969
4,64,2,right_incg,0,incg,num_7,num_7,1,0.4046155996620655
4,65,2,right_incg,0,incg,num_7,num_7,1,0.3585326001048088
4,66,2,right_incg,0,incg,num_7,num_7,1,0.6263522002846003
4,67,3,left_incg,0,incg,num_9,num_7,0,0.33695629984140396
4,68,3,left_incg,0,incg,num_9,num_9,1,0.6195125998929143
4,69,2,right_incg,0,incg,num_7,num_7,1,0.38577699987217784
4,70,3,left_incg,0,incg,num_9,num_9,1,0.41306280018761754
4,71,1,left_cong,1,cong,num_7,num_7,1,0.45283109974116087
4,72,1,left_cong,1,cong,num_7,num_7,1,0.3858890999108553
4,73,1,left_cong,1,cong,num_7,num_7,1,0.3778830002993345
4,74,1,left_cong,1,cong,num_7,num_7,1,0.3111916999332607
4,75,0,right_cong,1,cong,num_9,num_7,0,0.2932688002474606
4,76,3,left_incg,0,incg,num_9,num_7,0,0.6903198999352753
4,77,2,right_incg,0,incg,num_7,num_7,1,0.5556371998973191
4,78,3,left_incg,0,incg,num_9,num_9,1,0.3285407000221312
4,79,2,right_incg,0,incg,num_7,num_7,1,0.38914670003578067
4,80,2,right_incg,0,incg,num_7,num_7,1,0.6873981999233365
4,81,2,right_incg,0,incg,num_7,num_7,1,0.5698331999592483
4,82,3,left_incg,0,incg,num_9,num_9,1,0.33490859996527433
4,83,2,right_incg,0,incg,num_7,num_7,1,0.39588989969342947
4,84,3,left_incg,0,incg,num_9,num_9,1,0.3238637000322342
4,85,3,left_incg,0,incg,num_9,num_9,1,0.44886420015245676
4,86,2,right_incg,0,incg,num_7,num_7,1,0.734867800027132
4,87,2,right_incg,0,incg,num_7,num_7,1,0.4350454001687467
4,88,3,left_incg,0,incg,num_9,num_9,1,0.42563580023124814
4,89,2,right_incg,0,incg,num_7,num_7,1,0.4074105997569859
4,90,3,left_incg,0,incg,num_9,num_9,1,0.39068130031228065
4,91,2,right_incg,0,incg,num_7,num_7,1,0.4033727999776602
4,92,3,left_incg,0,incg,num_9,num_9,1,0.38311100006103516
4,93,2,right_incg,0,incg,num_7,num_7,1,0.31854300014674664
4,94,2,right_incg,0,incg,num_7,num_9,0,0.2882353002205491
4,95,2,right_incg,0,incg,num_7,num_7,1,0.43740659998729825
4,96,0,right_cong,1,cong,num_9,num_9,1,0.4788525002077222
4,97,0,right_cong,1,cong,num_9,num_9,1,0.4168567000888288
4,98,0,right_cong,1,cong,num_9,num_9,1,0.35502190003171563
4,99,0,right_cong,1,cong,num_9,num_9,1,0.30388660030439496
4,100,1,left_cong,1,cong,num_7,num_7,1,0.5027336999773979
5,1,3,left_incg,0,incg,num_9,num_9,1,0.6514071999117732
5,2,2,right_incg,0,incg,num_7,num_7,1,0.36596120009198785
5,3,2,right_incg,0,incg,num_7,num_7,1,0.39194800006225705
5,4,3,left_incg,0,incg,num_9,num_9,1,0.435945600271225
5,5,3,left_incg,0,incg,num_9,num_9,1,0.3264356995932758
5,6,2,right_incg,0,incg,num_7,num_7,1,0.6057839998975396
5,7,2,right_incg,0,incg,num_7,num_7,1,0.4054681998677552
5,8,3,left_incg,0,incg,num_9,num_9,1,0.3609442003071308
5,9,3,left_incg,0,incg,num_9,num_9,1,0.33829230023548007
5,10,3,left_incg,0,incg,num_9,num_9,1,0.4451775001361966
5,11,0,right_cong,1,cong,num_9,num_9,1,0.4121909998357296
5,12,1,left_cong,1,cong,num_7,num_7,1,0.33563200011849403
5,13,1,left_cong,1,cong,num_7,num_7,1,0.373989200219512
5,14,0,right_cong,1,cong,num_9,num_9,1,0.331233199685812
5,15,0,right_cong,1,cong,num_9,num_9,1,0.45948649989441037
5,16,0,right_cong,1,cong,num_9,num_9,1,0.7242053002119064
5,17,0,right_cong,1,cong,num_9,num_9,1,0.31227090023458004
5,18,0,right_cong,1,cong,num_9,num_9,1,0.2761424002237618
5,19,0,right_cong,1,cong,num_9,num_9,1,0.27222219994291663
5,20,0,right_cong,1,cong,num_9,num_9,1,0.27786010038107634
5,21,0,right_cong,1,cong,num_9,num_9,1,0.37269920017570257
5,22,0,right_cong,1,cong,num_9,num_9,1,0.26337509974837303
5,23,1,left_cong,1,cong,num_7,num_9,0,0.30809420021250844
5,24,1,left_cong,1,cong,num_7,num_7,1,0.4010924999602139
5,25,1,left_cong,1,cong,num_7,num_7,1,0.3699888000264764
5,26,0,right_cong,1,cong,num_9,num_9,1,0.3184195999056101
5,27,0,right_cong,1,cong,num_9,num_9,1,0.44476780015975237
5,28,0,right_cong,1,cong,num_9,num_9,1,0.3579928996041417
5,29,0,right_cong,1,cong,num_9,num_9,1,0.43383320001885295
5,30,0,right_cong,1,cong,num_9,num_9,1,0.3126906002871692
5,31,3,left_incg,0,incg,num_9,num_9,1,0.46375840017572045
5,32,2,right_incg,0,incg,num_7,num_7,1,0.4918498997576535
5,33,3,left_incg,0,incg,num_9,num_9,1,0.47072449978441
5,34,2,right_incg,0,incg,num_7,num_7,1,0.4595113000832498
5,35,2,right_incg,0,incg,num_7,num_7,1,0.5048883999697864
5,36,3,left_incg,0,incg,num_9,num_9,1,0.46679680002853274
5,37,3,left_incg,0,incg,num_9,num_9,1,0.3817389998584986
5,38,3,left_incg,0,incg,num_9,num_9,1,0.33602849999442697
5,39,2,right_incg,0,incg,num_7,num_7,1,0.385485399980098
5,40,2,right_incg,0,incg,num_7,num_7,1,0.2978980001062155
5,41,1,left_cong,1,cong,num_7,num_7,1,0.5023042997345328
5,42,0,right_cong,1,cong,num_9,num_9,1,0.304984699934721
5,43,1,left_cong,1,cong,num_7,num_7,1,0.3120121001265943
5,44,1,left_cong,1,cong,num_7,num_7,1,0.38056989992037416
5,45,1,left_cong,1,cong,num_7,num_7,1,0.3148717996664345
5,46,1,left_cong,1,cong,num_7,num_7,1,0.45699929958209395
5,47,1,left_cong,1,cong,num_7,num_7,1,0.33429200015962124
5,48,1,left_cong,1,cong,num_7,num_7,1,0.2845387002453208
5,49,1,left_cong,1,cong,num_7,num_7,1,0.321603300049901
5,50,0,right_cong,1,cong,num_9,num_9,1,0.7006588000804186
5,51,1,left_cong,1,cong,num_7,num_7,1,0.3539526998065412
5,52,0,right_cong,1,cong,num_9,num_9,1,0.3657688000239432
5,53,0,right_cong,1,cong,num_9,num_9,1,0.30401379987597466
5,54,0,right_cong,1,cong,num_9,num_9,1,0.25402359990403056
5,55,0,right_cong,1,cong,num_9,num_9,1,0.3235630998387933
5,56,0,right_cong,1,cong,num_9,num_9,1,0.6127284998074174
5,57,1,left_cong,1,cong,num_7,num_7,1,0.3899611998349428
5,58,0,right_cong,1,cong,num_9,num_9,1,0.3796443999744952
5,59,0,right_cong,1,cong,num_9,num_9,1,0.4635632000863552
5,60,1,left_cong,1,cong,num_7,num_7,1,0.34469779999926686
5,61,2,right_incg,0,incg,num_7,num_7,1,0.5149032003246248
5,62,3,left_incg,0,incg,num_9,num_9,1,0.4557121996767819
5,63,2,right_incg,0,incg,num_7,num_7,1,0.4236120996065438
5,64,2,right_incg,0,incg,num_7,num_7,1,0.30895720003172755
5,65,2,right_incg,0,incg,num_7,num_7,1,0.3642611000686884
5,66,1,left_cong,1,cong,num_7,num_7,1,0.42603660002350807
5,67,0,right_cong,1,cong,num_9,num_9,1,0.2693064999766648
5,68,0,right_cong,1,cong,num_9,num_9,1,0.3264414998702705
5,69,0,right_cong,1,cong,num_9,num_9,1,0.2652619001455605
5,70,1,left_cong,1,cong,num_7,num_7,1,0.42020140029489994
5,71,3,left_incg,0,incg,num_9,num_9,1,0.46917840000241995
5,72,2,right_incg,0,incg,num_7,num_7,1,0.361525799613446
5,73,3,left_incg,0,incg,num_9,num_9,1,0.33411059994250536
5,74,3,left_incg,0,incg,num_9,num_7,0,0.3019117000512779
5,75,3,left_incg,0,incg,num_9,num_9,1,0.37104339990764856
5,76,1,left_cong,1,cong,num_7,num_7,1,0.39840819966048
5,77,0,right_cong,1,cong,num_9,num_9,1,0.3247095001861453
5,78,1,left_cong,1,cong,num_7,num_7,1,0.24098880030214787
5,79,1,left_cong,1,cong,num_7,num_7,1,0.3779855999164283
5,80,1,left_cong,1,cong,num_7,num_7,1,0.30867219995707273
5,81,0,right_cong,1,cong,num_9,num_9,1,0.3617783999070525
5,82,0,right_cong,1,cong,num_9,num_9,1,0.3578980998136103
5,83,0,right_cong,1,cong,num_9,num_9,1,0.28790480038151145
5,84,0,right_cong,1,cong,num_9,num_9,1,0.37646370008587837
5,85,1,left_cong,1,cong,num_7,num_7,1,0.4421820999123156
5,86,1,left_cong,1,cong,num_7,num_7,1,0.413472100161016
5,87,0,right_cong,1,cong,num_9,num_9,1,0.2726977001875639
5,88,1,left_cong,1,cong,num_7,num_7,1,0.3856288003735244
5,89,0,right_cong,1,cong,num_9,num_9,1,0.2811241000890732
5,90,0,right_cong,1,cong,num_9,num_9,1,0.4095620000734925
5,91,3,left_incg,0,incg,num_9,num_7,0,0.41248450009152293
5,92,3,left_incg,0,incg,num_9,num_9,1,0.44180200016126037
5,93,3,left_incg,0,incg,num_9,num_9,1,0.37600829964503646
5,94,2,right_incg,0,incg,num_7,num_7,1,0.41152399964630604
5,95,3,left_incg,0,incg,num_9,num_9,1,0.364930700045079
5,96,0,right_cong,1,cong,num_9,num_9,1,0.31124969990924
5,97,0,right_cong,1,cong,num_9,num_9,1,0.33599040005356073
5,98,1,left_cong,1,cong,num_7,num_7,1,0.3281485000625253
5,99,0,right_cong,1,cong,num_9,num_9,1,0.32629889994859695
5,100,0,right_cong,1,cong,num_9,num_9,1,0.30257910024374723
6,1,0,right_cong,1,cong,num_9,num_9,1,0.33958989987149835
6,2,0,right_cong,1,cong,num_9,num_9,1,0.2884284001775086
6,3,0,right_cong,1,cong,num_9,num_9,1,0.2791426000185311
6,4,1,left_cong,1,cong,num_7,num_9,0,0.24294180003926158
6,5,1,left_cong,1,cong,num_7,num_7,1,0.3902259999886155
6,6,3,left_incg,0,incg,num_9,num_9,1,0.4530680999159813
6,7,3,left_incg,0,incg,num_9,num_9,1,0.3573334999382496
6,8,3,left_incg,0,incg,num_9,num_9,1,0.37631280021741986
6,9,3,left_incg,0,incg,num_9,num_9,1,0.2908123000524938
6,10,2,right_incg,0,incg,num_7,num_7,1,0.37781549990177155
6,11,0,right_cong,1,cong,num_9,num_9,1,0.3277253000997007
6,12,1,left_cong,1,cong,num_7,num_7,1,0.3932480998337269
6,13,1,left_cong,1,cong,num_7,num_7,1,0.35231340024620295
6,14,0,right_cong,1,cong,num_9,num_9,1,0.4133215001784265
6,15,1,left_cong,1,cong,num_7,num_7,1,0.28884740034118295
6,16,3,left_incg,0,incg,num_9,num_9,1,0.42208619974553585
6,17,2,right_incg,0,incg,num_7,num_7,1,0.32267050025984645
6,18,2,right_incg,0,incg,num_7,num_7,1,0.4761482998728752
6,19,2,right_incg,0,incg,num_7,num_7,1,0.5688829999417067
6,20,2,right_incg,0,incg,num_7,num_7,1,0.36396449990570545
6,21,1,left_cong,1,cong,num_7,num_7,1,0.5948339002206922
6,22,1,left_cong,1,cong,num_7,num_7,1,0.30332319997251034
6,23,0,right_cong,1,cong,num_9,num_9,1,0.3592544002458453
6,24,0,right_cong,1,cong,num_9,num_9,1,0.31303599989041686
6,25,1,left_cong,1,cong,num_7,num_7,1,0.30543370032683015
6,26,3,left_incg,0,incg,num_9,num_9,1,0.564665500074625
6,27,3,left_incg,0,incg,num_9,num_9,1,0.39050670014694333
6,28,3,left_incg,0,incg,num_9,num_7,0,0.39171670004725456
6,29,3,left_incg,0,incg,num_9,num_9,1,0.3638643999584019
6,30,3,left_incg,0,incg,num_9,num_9,1,0.42639630008488894
6,31,2,right_incg,0,incg,num_7,num_7,1,0.38367500016465783
6,32,3,left_incg,0,incg,num_9,num_9,1,0.314213200006634
6,33,2,right_incg,0,incg,num_7,num_7,1,0.40296189999207854
6,34,3,left_incg,0,incg,num_9,num_9,1,0.38708569994196296
6,35,2,right_incg,0,incg,num_7,num_7,1,0.32618589978665113
6,36,0,right_cong,1,cong,num_9,num_9,1,0.322193699888885
6,37,1,left_cong,1,cong,num_7,num_7,1,0.28382869996130466
6,38,0,right_cong,1,cong,num_9,num_9,1,0.28844189969822764
6,39,0,right_cong,1,cong,num_9,num_9,1,0.2627984001301229
6,40,1,left_cong,1,cong,num_7,num_9,0,0.3435629000887275
6,41,0,right_cong,1,cong,num_9,num_9,1,0.41399209992960095
6,42,0,right_cong,1,cong,num_9,num_7,0,0.3204163000918925
6,43,1,left_cong,1,cong,num_7,num_7,1,0.40228059981018305
6,44,0,right_cong,1,cong,num_9,num_9,1,0.2802496999502182
6,45,0,right_cong,1,cong,num_9,num_9,1,0.34518259996548295
6,46,0,right_cong,1,cong,num_9,num_9,1,0.44232230028137565
6,47,0,right_cong,1,cong,num_9,num_9,1,0.2766559002920985
6,48,1,left_cong,1,cong,num_7,num_7,1,0.3816386996768415
6,49,0,right_cong,1,cong,num_9,num_9,1,0.36473500030115247
6,50,1,left_cong,1,cong,num_7,num_7,1,0.33222730038687587
6,51,2,right_incg,0,incg,num_7,num_7,1,0.4107035999186337
6,52,2,right_incg,0,incg,num_7,num_7,1,0.4471170003525913
6,53,2,right_incg,0,incg,num_7,num_7,1,0.3654732001014054
6,54,2,right_incg,0,incg,num_7,num_7,1,0.413315299898386
6,55,2,right_incg,0,incg,num_7,num_7,1,0.4634115998633206
6,56,2,right_incg,0,incg,num_7,num_7,1,0.5002490999177098
6,57,2,right_incg,0,incg,num_7,num_7,1,0.3058019997552037
6,58,3,left_incg,0,incg,num_9,num_9,1,0.43861389998346567
6,59,3,left_incg,0,incg,num_9,num_9,1,0.39625300001353025
6,60,2,right_incg,0,incg,num_7,num_7,1,0.4088098998181522
6,61,2,right_incg,0,incg,num_7,num_7,1,0.6160728000104427
6,62,3,left_incg,0,incg,num_9,num_9,1,0.3884286000393331
6,63,2,right_incg,0,incg,num_7,num_7,1,0.4449740001000464
6,64,2,right_incg,0,incg,num_7,num_7,1,0.3954532998614013
6,65,3,left_incg,0,incg,num_9,num_9,1,0.45905520021915436
6,66,0,right_cong,1,cong,num_9,num_9,1,0.4106076997704804
6,67,0,right_cong,1,cong,num_9,num_9,1,0.41024480015039444
6,68,1,left_cong,1,cong,num_7,num_7,1,0.36164130037650466
6,69,0,right_cong,1,cong,num_9,num_9,1,0.26565800001844764
6,70,1,left_cong,1,cong,num_7,num_7,1,0.33621180010959506
6,71,0,right_cong,1,cong,num_9,num_9,1,0.38192470045760274
6,72,0,right_cong,1,cong,num_9,num_9,1,0.32484229980036616
6,73,0,right_cong,1,cong,num_9,num_9,1,0.27034980012103915
6,74,0,right_cong,1,cong,num_9,num_9,1,0.28273450024425983
6,75,0,right_cong,1,cong,num_9,num_9,1,0.25411610025912523
6,76,1,left_cong,1,cong,num_7,num_7,1,0.3518354999832809
6,77,1,left_cong,1,cong,num_7,num_7,1,0.30954180005937815
6,78,0,right_cong,1,cong,num_9,num_9,1,0.49401719961315393
6,79,0,right_cong,1,cong,num_9,num_9,1,0.3286073999479413
6,80,1,left_cong,1,cong,num_7,num_7,1,0.2770495000295341
6,81,1,left_cong,1,cong,num_7,num_7,1,0.3810104001313448
6,82,0,right_cong,1,cong,num_9,num_9,1,0.2704147999174893
6,83,1,left_cong,1,cong,num_7,num_7,1,0.2700271001085639
6,84,1,left_cong,1,cong,num_7,num_7,1,0.36487270006909966
6,85,1,left_cong,1,cong,num_7,num_7,1,0.3261020998470485
6,86,3,left_incg,0,incg,num_9,num_9,1,0.37880839966237545
6,87,2,right_incg,0,incg,num_7,num_7,1,0.34873880026862025
6,88,2,right_incg,0,incg,num_7,num_7,1,0.4133652001619339
6,89,2,right_incg,0,incg,num_7,num_7,1,0.3603254999034107
6,90,2,right_incg,0,incg,num_7,num_7,1,0.45073889987543225
6,91,1,left_cong,1,cong,num_7,num_7,1,0.4344184002839029
6,92,1,left_cong,1,cong,num_7,num_7,1,0.3515781001187861
6,93,1,left_cong,1,cong,num_7,num_7,1,0.331445200368762
6,94,1,left_cong,1,cong,num_7,num_7,1,0.2888810997828841
6,95,1,left_cong,1,cong,num_7,num_7,1,0.2544150003232062
6,96,0,right_cong,1,cong,num_9,num_9,1,0.3473990000784397
6,97,1,left_cong,1,cong,num_7,num_7,1,0.3079312997870147
6,98,1,left_cong,1,cong,num_7,num_7,1,0.3329236996360123
6,99,0,right_cong,1,cong,num_9,num_9,1,0.38242389960214496
6,100,1,left_cong,1,cong,num_7,num_7,1,0.29013470001518726
7,1,3,left_incg,0,incg,num_9,num_9,1,0.573866399936378
7,2,2,right_incg,0,incg,num_7,num_7,1,0.43689149990677834
7,3,3,left_incg,0,incg,num_9,num_9,1,0.365724999923259
7,4,2,right_incg,0,incg,num_7,num_7,1,0.4007466998882592
7,5,3,left_incg,0,incg,num_9,num_9,1,0.33537530014291406
7,6,3,left_incg,0,incg,num_9,num_9,1,0.4206829001195729
7,7,3,left_incg,0,incg,num_9,num_9,1,0.38263880042359233
7,8,3,left_incg,0,incg,num_9,num_9,1,0.330583400093019
7,9,3,left_incg,0,incg,num_9,num_9,1,0.3057478000409901
7,10,3,left_incg,0,incg,num_9,num_9,1,0.30385580006986856
7,11,1,left_cong,1,cong,num_7,num_7,1,0.4020771998912096
7,12,1,left_cong,1,cong,num_7,num_7,1,0.34162290021777153
7,13,0,right_cong,1,cong,num_9,num_9,1,0.38146759988740087
7,14,1,left_cong,1,cong,num_7,num_7,1,0.3689154000021517
7,15,0,right_cong,1,cong,num_9,num_9,1,0.33022799994796515
7,16,0,right_cong,1,cong,num_9,num_9,1,0.3828568998724222
7,17,1,left_cong,1,cong,num_7,num_7,1,0.311780100222677
7,18,1,left_cong,1,cong,num_7,num_7,1,0.35546870017424226
7,19,1,left_cong,1,cong,num_7,num_7,1,0.3284846995957196
7,20,1,left_cong,1,cong,num_7,num_7,1,0.36075770016759634
7,21,3,left_incg,0,incg,num_9,num_9,1,0.45652469992637634
7,22,2,right_incg,0,incg,num_7,num_7,1,0.4106385000050068
7,23,3,left_incg,0,incg,num_9,num_9,1,0.3645099001005292
7,24,3,left_incg,0,incg,num_9,num_7,0,0.3511206000111997
7,25,2,right_incg,0,incg,num_7,num_7,1,0.40182709973305464
7,26,2,right_incg,0,incg,num_7,num_7,1,0.46192279970273376
7,27,2,right_incg,0,incg,num_7,num_7,1,0.3695176001638174
7,28,2,right_incg,0,incg,num_7,num_7,1,0.4305594996549189
7,29,3,left_incg,0,incg,num_9,num_9,1,0.3613503002561629
7,30,3,left_incg,0,incg,num_9,num_9,1,0.47075239988043904
7,31,1,left_cong,1,cong,num_7,num_7,1,0.4514004001393914
7,32,0,right_cong,1,cong,num_9,num_9,1,0.4673315999098122
7,33,1,left_cong,1,cong,num_7,num_7,1,0.3169829002581537
7,34,0,right_cong,1,cong,num_9,num_9,1,0.33308999985456467
7,35,1,left_cong,1,cong,num_7,num_7,1,0.3296993998810649
7,36,3,left_incg,0,incg,num_9,num_9,1,0.5325576001778245
7,37,3,left_incg,0,incg,num_9,num_9,1,0.4255119999870658
7,38,3,left_incg,0,incg,num_9,num_9,1,0.5019875001162291
7,39,3,left_incg,0,incg,num_9,num_9,1,0.44339360017329454
7,40,2,right_incg,0,incg,num_7,num_7,1,0.44313690019771457
7,41,0,right_cong,1,cong,num_9,num_9,1,0.36341619957238436
7,42,0,right_cong,1,cong,num_9,num_9,1,0.26018810039386153
7,43,1,left_cong,1,cong,num_7,num_7,1,0.3932368000969291
7,44,0,right_cong,1,cong,num_9,num_9,1,0.3360446998849511
7,45,0,right_cong,1,cong,num_9,num_9,1,0.3789934003725648
7,46,1,left_cong,1,cong,num_7,num_7,1,0.4012752999551594
7,47,0,right_cong,1,cong,num_9,num_9,1,0.32489500008523464
7,48,1,left_cong,1,cong,num_7,num_7,1,0.36589490016922355
7,49,0,right_cong,1,cong,num_9,num_9,1,0.322051300201565
7,50,1,left_cong,1,cong,num_7,num_7,1,0.30155610013753176
7,51,2,right_incg,0,incg,num_7,num_7,1,0.8408955996856093
7,52,2,right_incg,0,incg,num_7,num_9,0,0.3234283998608589
7,53,2,right_incg,0,incg,num_7,num_7,1,0.46190020022913814
7,54,3,left_incg,0,incg,num_9,num_9,1,0.4416980999521911
7,55,2,right_incg,0,incg,num_7,num_7,1,0.4167573000304401
7,56,1,left_cong,1,cong,num_7,num_7,1,0.4047642997466028
7,57,0,right_cong,1,cong,num_9,num_9,1,0.32219470012933016
7,58,1,left_cong,1,cong,num_7,num_7,1,0.3681612997315824
7,59,1,left_cong,1,cong,num_7,num_7,1,0.3820855999365449
7,60,0,right_cong,1,cong,num_9,num_9,1,0.4146497999317944
7,61,1,left_cong,1,cong,num_7,num_7,1,0.5977471997030079
7,62,1,left_cong,1,cong,num_7,num_7,1,0.36391690000891685
7,63,0,right_cong,1,cong,num_9,num_9,1,0.423361100256443
7,64,0,right_cong,1,cong,num_9,num_9,1,0.3919291999191046
7,65,1,left_cong,1,cong,num_7,num_7,1,0.40239750035107136
7,66,3,left_incg,0,incg,num_9,num_9,1,0.5252840002067387
7,67,3,left_incg,0,incg,num_9,num_9,1,0.39267410011962056
7,68,2,right_incg,0,incg,num_7,num_7,1,0.3957442999817431
7,69,2,right_incg,0,incg,num_7,num_9,0,0.39102640002965927
7,70,2,right_incg,0,incg,num_7,num_9,0,0.5060111000202596
7,71,0,right_cong,1,cong,num_9,num_9,1,0.3485225001350045
7,72,0,right_cong,1,cong,num_9,num_9,1,0.3219608999788761
7,73,0,right_cong,1,cong,num_9,num_9,1,0.29779479978606105
7,74,0,right_cong,1,cong,num_9,num_9,1,0.2535296999849379
7,75,1,left_cong,1,cong,num_7,num_7,1,0.42635720036923885
7,76,0,right_cong,1,cong,num_9,num_9,1,0.3620335003361106
7,77,1,left_cong,1,cong,num_7,num_7,1,0.3758053001947701
7,78,1,left_cong,1,cong,num_7,num_7,1,0.31845210026949644
7,79,0,right_cong,1,cong,num_9,num_9,1,0.5157106001861393
7,80,1,left_cong,1,cong,num_7,num_7,1,0.2565457997843623
7,81,1,left_cong,1,cong,num_7,num_7,1,0.3943243999965489
7,82,0,right_cong,1,cong,num_9,num_9,1,0.4245545999146998
7,83,0,right_cong,1,cong,num_9,num_9,1,0.38471000036224723
7,84,1,left_cong,1,cong,num_7,num_7,1,0.3427687999792397
7,85,1,left_cong,1,cong,num_7,num_7,1,0.41703360015526414
7,86,3,left_incg,0,incg,num_9,num_9,1,0.4686167002655566
7,87,2,right_incg,0,incg,num_7,num_7,1,0.4827831001020968
7,88,3,left_incg,0,incg,num_9,num_9,1,0.4106537001207471
7,89,3,left_incg,0,incg,num_9,num_9,1,0.45718250004574656
7,90,2,right_incg,0,incg,num_7,num_7,1,0.49942650040611625
7,91,1,left_cong,1,cong,num_7,num_7,1,0.44888600008562207
7,92,1,left_cong,1,cong,num_7,num_7,1,0.4066283004358411
7,93,0,right_cong,1,cong,num_9,num_9,1,0.33155279979109764
7,94,0,right_cong,1,cong,num_9,num_9,1,0.3835877999663353
7,95,0,right_cong,1,cong,num_9,num_9,1,0.3896524999290705
7,96,0,right_cong,1,cong,num_9,num_9,1,0.35861860029399395
7,97,1,left_cong,1,cong,num_7,num_7,1,0.45319939963519573
7,98,1,left_cong,1,cong,num_7,num_7,1,0.49749730015173554
7,99,1,left_cong,1,cong,num_7,num_7,1,0.43215980008244514
7,100,0,right_cong,1,cong,num_9,num_9,1,0.4707782003097236
8,1,0,right_cong,1,cong,num_9,num_9,1,0.39626039983704686
8,2,0,right_cong,1,cong,num_9,num_9,1,0.3002960002049804
8,3,0,right_cong,1,cong,num_9,num_9,1,0.2799829998984933
8,4,0,right_cong,1,cong,num_9,num_9,1,0.2967694001272321
8,5,1,left_cong,1,cong,num_7,num_7,1,0.41120539978146553
8,6,1,left_cong,1,cong,num_7,num_7,1,0.45652970019727945
8,7,1,left_cong,1,cong,num_7,num_7,1,0.32524360017850995
8,8,1,left_cong,1,cong,num_7,num_7,1,0.2926888996735215
8,9,1,left_cong,1,cong,num_7,num_7,1,0.34609090024605393
8,10,1,left_cong,1,cong,num_7,num_7,1,0.28215999994426966
8,11,2,right_incg,0,incg,num_7,num_7,1,0.4034163998439908
8,12,3,left_incg,0,incg,num_9,num_9,1,0.3735430003143847
8,13,2,right_incg,0,incg,num_7,num_7,1,0.3816975001245737
8,14,2,right_incg,0,incg,num_7,num_7,1,0.31917350040748715
8,15,2,right_incg,0,incg,num_7,num_7,1,0.37187370005995035
8,16,0,right_cong,1,cong,num_9,num_9,1,0.32949799997732043
8,17,1,left_cong,1,cong,num_7,num_7,1,0.35125999990850687
8,18,1,left_cong,1,cong,num_7,num_7,1,0.2969669997692108
8,19,1,left_cong,1,cong,num_7,num_7,1,0.30594429979100823
8,20,0,right_cong,1,cong,num_9,num_9,1,0.3634978998452425
8,21,3,left_incg,0,incg,num_9,num_9,1,0.8698958000168204
8,22,3,left_incg,0,incg,num_9,num_9,1,0.3488440001383424
8,23,3,left_incg,0,incg,num_9,num_9,1,0.286183699965477
8,24,3,left_incg,0,incg,num_9,num_9,1,0.3186237998306751
8,25,3,left_incg,0,incg,num_9,num_9,1,0.3501663003116846
8,26,3,left_incg,0,incg,num_9,num_9,1,0.3256056001409888
8,27,2,right_incg,0,incg,num_7,num_7,1,0.3993196999654174
8,28,3,left_incg,0,incg,num_9,num_9,1,0.34491709992289543
8,29,3,left_incg,0,incg,num_9,num_9,1,0.4255695999599993
8,30,2,right_incg,0,incg,num_7,num_7,1,0.3765867003239691
8,31,2,right_incg,0,incg,num_7,num_7,1,0.36987939989194274
8,32,3,left_incg,0,incg,num_9,num_9,1,0.3506756997667253
8,33,3,left_incg,0,incg,num_9,num_9,1,0.3711548997089267
8,34,3,left_incg,0,incg,num_9,num_9,1,0.3207558002322912
8,35,2,right_incg,0,incg,num_7,num_7,1,0.35177790001034737
8,36,1,left_cong,1,cong,num_7,num_7,1,0.6451775999739766
8,37,0,right_cong,1,cong,num_9,num_9,1,0.397639499977231
8,38,0,right_cong,1,cong,num_9,num_9,1,0.4521894999779761
8,39,1,left_cong,1,cong,num_7,num_7,1,0.3068172000348568
8,40,1,left_cong,1,cong,num_7,num_9,0,0.284994900226593
8,41,2,right_incg,0,incg,num_7,num_7,1,0.3887207000516355
8,42,2,right_incg,0,incg,num_7,num_7,1,0.4515168000943959
8,43,3,left_incg,0,incg,num_9,num_9,1,0.3251771000213921
8,44,3,left_incg,0,incg,num_9,num_9,1,0.4493426000699401
8,45,2,right_incg,0,incg,num_7,num_7,1,0.4086088999174535
8,46,0,right_cong,1,cong,num_9,num_9,1,0.3339236001484096
8,47,1,left_cong,1,cong,num_7,num_7,1,0.35533419996500015
8,48,0,right_cong,1,cong,num_9,num_9,1,0.28806470008566976
8,49,1,left_cong,1,cong,num_7,num_7,1,0.24206950003281236
8,50,0,right_cong,1,cong,num_9,num_9,1,0.32938869995996356
8,51,3,left_incg,0,incg,num_9,num_9,1,0.8253914001397789
8,52,3,left_incg,0,incg,num_9,num_9,1,0.3874738998711109
8,53,3,left_incg,0,incg,num_9,num_9,1,0.3852111999876797
8,54,2,right_incg,0,incg,num_7,num_7,1,0.5713665997609496
8,55,2,right_incg,0,incg,num_7,num_7,1,0.43928700033575296
8,56,0,right_cong,1,cong,num_9,num_9,1,0.3763170000165701
8,57,1,left_cong,1,cong,num_7,num_7,1,0.3141553997993469
8,58,1,left_cong,1,cong,num_7,num_7,1,0.38700230000540614
8,59,0,right_cong,1,cong,num_9,num_9,1,0.39655250031501055
8,60,1,left_cong,1,cong,num_7,num_7,1,0.34142319997772574
8,61,0,right_cong,1,cong,num_9,num_9,1,0.474314299877733
8,62,0,right_cong,1,cong,num_9,num_9,1,0.32428230019286275
8,63,1,left_cong,1,cong,num_7,num_7,1,0.3655694001354277
8,64,0,right_cong,1,cong,num_9,num_9,1,0.329256699886173
8,65,0,right_cong,1,cong,num_9,num_9,1,0.3904093001037836
8,66,1,left_cong,1,cong,num_7,num_7,1,0.44901399966329336
8,67,0,right_cong,1,cong,num_9,num_9,1,0.2551017003133893
8,68,1,left_cong,1,cong,num_7,num_7,1,0.3089769002981484
8,69,1,left_cong,1,cong,num_7,num_7,1,0.36471719993278384
8,70,0,right_cong,1,cong,num_9,num_9,1,0.32226150017231703
8,71,1,left_cong,1,cong,num_7,num_7,1,0.3730906997807324
8,72,1,left_cong,1,cong,num_7,num_7,1,0.2848584000021219
8,73,0,right_cong,1,cong,num_9,num_9,1,0.27134860027581453
8,74,1,left_cong,1,cong,num_7,num_7,1,0.2960072997957468
8,75,0,right_cong,1,cong,num_9,num_9,1,0.2513123997487128
8,76,3,left_incg,0,incg,num_9,num_9,1,0.5925259003415704
8,77,2,right_incg,0,incg,num_7,num_7,1,0.33039729995653033
8,78,2,right_incg,0,incg,num_7,num_7,1,0.43117969995364547
8,79,2,right_incg,0,incg,num_7,num_7,1,0.40832250006496906
8,80,2,right_incg,0,incg,num_7,num_7,1,0.33040150022134185
8,81,3,left_incg,0,incg,num_9,num_9,1,0.4220778001472354
8,82,2,right_incg,0,incg,num_7,num_7,1,0.2810553996823728
8,83,2,right_incg,0,incg,num_7,num_7,1,0.3841057997196913
8,84,3,left_incg,0,incg,num_9,num_9,1,0.46448969980701804
8,85,2,right_incg,0,incg,num_7,num_7,1,0.401823400054127
8,86,2,right_incg,0,incg,num_7,num_7,1,0.4623877997510135
8,87,2,right_incg,0,incg,num_7,num_7,1,0.4000344998203218
8,88,3,left_incg,0,incg,num_9,num_9,1,0.38752759993076324
8,89,2,right_incg,0,incg,num_7,num_7,1,0.3750624000094831
8,90,3,left_incg,0,incg,num_9,num_9,1,0.370480100158602
8,91,0,right_cong,1,cong,num_9,num_9,1,0.33958719996735454
8,92,0,right_cong,1,cong,num_9,num_9,1,0.30384959978982806
8,93,1,left_cong,1,cong,num_7,num_7,1,0.35200530011206865
8,94,0,right_cong,1,cong,num_9,num_9,1,0.24994899984449148
8,95,1,left_cong,1,cong,num_7,num_7,1,0.29568659979850054
8,96,3,left_incg,0,incg,num_9,num_9,1,0.3416379000991583
8,97,3,left_incg,0,incg,num_9,num_9,1,0.3588509000837803
8,98,3,left_incg,0,incg,num_9,num_9,1,0.42778699984773993
8,99,2,right_incg,0,incg,num_7,num_7,1,0.565584400203079
8,100,3,left_incg,0,incg,num_9,num_9,1,0.47107179975137115
9,1,0,right_cong,1,cong,num_9,num_9,1,0.3172652996145189
9,2,0,right_cong,1,cong,num_9,num_9,1,0.2874245997518301
9,3,1,left_cong,1,cong,num_7,num_7,1,0.38606350030750036
9,4,1,left_cong,1,cong,num_7,num_7,1,0.34268400026485324
9,5,0,right_cong,1,cong,num_9,num_9,1,0.26106710033491254
9,6,3,left_incg,0,incg,num_9,num_9,1,0.4572688997723162
9,7,3,left_incg,0,incg,num_9,num_9,1,0.4799783998169005
9,8,2,right_incg,0,incg,num_7,num_9,0,0.32069869991391897
9,9,3,left_incg,0,incg,num_9,num_9,1,0.4265028000809252
9,10,2,right_incg,0,incg,num_7,num_7,1,0.4176734001375735
9,11,0,right_cong,1,cong,num_9,num_9,1,0.4592840997502208
9,12,0,right_cong,1,cong,num_9,num_9,1,0.3848791001364589
9,13,0,right_cong,1,cong,num_9,num_9,1,0.29292810009792447
9,14,0,right_cong,1,cong,num_9,num_9,1,0.2540004001930356
9,15,1,left_cong,1,cong,num_7,num_7,1,0.44801610009744763
9,16,1,left_cong,1,cong,num_7,num_7,1,0.43983619986101985
9,17,0,right_cong,1,cong,num_9,num_9,1,0.35997069999575615
9,18,0,right_cong,1,cong,num_9,num_9,1,0.33874629996716976
9,19,1,left_cong,1,cong,num_7,num_7,1,0.40357170021161437
9,20,1,left_cong,1,cong,num_7,num_7,1,0.34466159995645285
9,21,3,left_incg,0,incg,num_9,num_9,1,0.5922713000327349
9,22,2,right_incg,0,incg,num_7,num_7,1,0.3476138999685645
9,23,2,right_incg,0,incg,num_7,num_7,1,0.31081819999963045
9,24,3,left_incg,0,incg,num_9,num_9,1,0.3983171000145376
9,25,2,right_incg,0,incg,num_7,num_7,1,0.3476451998576522
9,26,2,right_incg,0,incg,num_7,num_7,1,0.5529632000252604
9,27,2,right_incg,0,incg,num_7,num_7,1,0.3558605001308024
9,28,2,right_incg,0,incg,num_7,num_7,1,0.2668592003174126
9,29,2,right_incg,0,incg,num_7,num_7,1,0.2896221997216344
9,30,2,right_incg,0,incg,num_7,num_7,1,0.36792360013350844
9,31,0,right_cong,1,cong,num_9,num_9,1,0.54258649982512
9,32,1,left_cong,1,cong,num_7,num_7,1,0.32319199992343783
9,33,0,right_cong,1,cong,num_9,num_9,1,0.3292883997783065
9,34,1,left_cong,1,cong,num_7,num_7,1,0.27200210001319647
9,35,0,right_cong,1,cong,num_9,num_9,1,0.2690755003131926
9,36,1,left_cong,1,cong,num_7,num_7,1,0.3399897003546357
9,37,0,right_cong,1,cong,num_9,num_9,1,0.33945570001378655
9,38,0,right_cong,1,cong,num_9,num_9,1,0.4280748004093766
9,39,0,right_cong,1,cong,num_9,num_9,1,0.4612692999653518
9,40,1,left_cong,1,cong,num_7,num_7,1,0.33070809999480844
9,41,0,right_cong,1,cong,num_9,num_9,1,0.33514880016446114
9,42,1,left_cong,1,cong,num_7,num_7,1,0.35613909969106317
9,43,0,right_cong,1,cong,num_9,num_9,1,0.2669188999570906
9,44,0,right_cong,1,cong,num_9,num_9,1,0.41566390031948686
9,45,1,left_cong,1,cong,num_7,num_7,1,0.3897990002296865
9,46,2,right_incg,0,incg,num_7,num_7,1,0.47747519984841347
9,47,3,left_incg,0,incg,num_9,num_9,1,0.35025390004739165
9,48,3,left_incg,0,incg,num_9,num_7,0,0.3324514999985695
9,49,2,right_incg,0,incg,num_7,num_9,0,0.3321297001093626
9,50,2,right_incg,0,incg,num_7,num_7,1,0.3534185001626611
9,51,0,right_cong,1,cong,num_9,num_9,1,0.4015492000617087
9,52,1,left_cong,1,cong,num_7,num_7,1,0.2906181002035737
9,53,1,left_cong,1,cong,num_7,num_7,1,0.3364900997839868
9,54,0,right_cong,1,cong,num_9,num_9,1,0.3533521997742355
9,55,1,left_cong,1,cong,num_7,num_7,1,0.36524870013818145
9,56,3,left_incg,0,incg,num_9,num_9,1,0.5093688000924885
9,57,2,right_incg,0,incg,num_7,num_7,1,0.3744032997637987
9,58,3,left_incg,0,incg,num_9,num_9,1,0.30537249986082315
9,59,3,left_incg,0,incg,num_9,num_9,1,0.4242039998061955
9,60,2,right_incg,0,incg,num_7,num_7,1,0.36453189980238676
9,61,2,right_incg,0,incg,num_7,num_7,1,0.570613999851048
9,62,3,left_incg,0,incg,num_9,num_9,1,0.41828149976208806
9,63,2,right_incg,0,incg,num_7,num_7,1,0.3786209002137184
9,64,2,right_incg,0,incg,num_7,num_7,1,0.3906565997749567
9,65,2,right_incg,0,incg,num_7,num_7,1,0.4750188998878002
9,66,0,right_cong,1,cong,num_9,num_9,1,0.394429599866271
9,67,0,right_cong,1,cong,num_9,num_9,1,0.28792469995096326
9,68,0,right_cong,1,cong,num_9,num_9,1,0.2742532999254763
9,69,0,right_cong,1,cong,num_9,num_9,1,0.25666610011830926
9,70,1,left_cong,1,cong,num_7,num_7,1,0.3578358003869653
9,71,0,right_cong,1,cong,num_9,num_9,1,0.35451099975034595
9,72,1,left_cong,1,cong,num_7,num_7,1,0.33256709994748235
9,73,0,right_cong,1,cong,num_9,num_9,1,0.3893224000930786
9,74,0,right_cong,1,cong,num_9,num_9,1,0.40537849999964237
9,75,1,left_cong,1,cong,num_7,num_7,1,0.44740330008789897
9,76,2,right_incg,0,incg,num_7,num_7,1,0.4173730001784861
9,77,2,right_incg,0,incg,num_7,num_7,1,0.4804853000678122
9,78,3,left_incg,0,incg,num_9,num_7,0,0.36171009996905923
9,79,2,right_incg,0,incg,num_7,num_7,1,0.3934246003627777
9,80,3,left_incg,0,incg,num_9,num_9,1,0.4085703999735415
9,81,2,right_incg,0,incg,num_7,num_7,1,0.4937574998475611
9,82,2,right_incg,0,incg,num_7,num_7,1,0.48771109990775585
9,83,3,left_incg,0,incg,num_9,num_9,1,0.3743510995991528
9,84,2,right_incg,0,incg,num_7,num_9,0,0.3524449998512864
9,85,3,left_incg,0,incg,num_9,num_9,1,0.3794023999944329
9,86,1,left_cong,1,cong,num_7,num_7,1,0.4071283000521362
9,87,1,left_cong,1,cong,num_7,num_7,1,0.2823393000289798
9,88,1,left_cong,1,cong,num_7,num_7,1,0.29986979998648167
9,89,1,left_cong,1,cong,num_7,num_7,1,0.3003910002298653
9,90,1,left_cong,1,cong,num_7,num_7,1,0.27993560023605824
9,91,0,right_cong,1,cong,num_9,num_9,1,0.43631470017135143
9,92,0,right_cong,1,cong,num_9,num_9,1,0.3067181003279984
9,93,0,right_cong,1,cong,num_9,num_9,1,0.32914690021425486
9,94,0,right_cong,1,cong,num_9,num_9,1,0.2806163998320699
9,95,0,right_cong,1,cong,num_9,num_9,1,0.2762799998745322
9,96,3,left_incg,0,incg,num_9,num_9,1,0.40285310009494424
9,97,3,left_incg,0,incg,num_9,num_9,1,0.34801690001040697
9,98,3,left_incg,0,incg,num_9,num_9,1,0.2978504002094269
9,99,3,left_incg,0,incg,num_9,num_9,1,0.3278140998445451
9,100,3,left_incg,0,incg,num_9,num_9,1,0.3267186996527016
10,1,0,right_cong,1,cong,num_9,num_9,1,0.42498849984258413
10,2,1,left_cong,1,cong,num_7,num_7,1,0.3255924000404775
10,3,0,right_cong,1,cong,num_9,num_9,1,0.3042659000493586
10,4,0,right_cong,1,cong,num_9,num_9,1,0.382536499761045
10,5,1,left_cong,1,cong,num_7,num_7,1,0.338261800352484
10,6,3,left_incg,0,incg,num_9,num_9,1,0.41059730015695095
10,7,3,left_incg,0,incg,num_9,num_9,1,0.33513240003958344
10,8,3,left_incg,0,incg,num_9,num_9,1,0.40228800009936094
10,9,3,left_incg,0,incg,num_9,num_9,1,0.4223542995750904
10,10,3,left_incg,0,incg,num_9,num_9,1,0.38526839995756745
10,11,2,right_incg,0,incg,num_7,num_7,1,0.5645534000359476
10,12,3,left_incg,0,incg,num_9,num_9,1,0.38843119982630014
10,13,2,right_incg,0,incg,num_7,num_7,1,0.5172784999012947
10,14,3,left_incg,0,incg,num_9,num_9,1,0.38597389962524176
10,15,3,left_incg,0,incg,num_9,num_7,0,0.3321928000077605
10,16,2,right_incg,0,incg,num_7,num_7,1,0.47383520007133484
10,17,3,left_incg,0,incg,num_9,num_9,1,0.4025753000751138
10,18,2,right_incg,0,incg,num_7,num_7,1,0.40070070000365376
10,19,3,left_incg,0,incg,num_9,num_9,1,0.35794469993561506
10,20,3,left_incg,0,incg,num_9,num_9,1,0.4912605998106301
10,21,1,left_cong,1,cong,num_7,num_7,1,0.4376048999838531
10,22,0,right_cong,1,cong,num_9,num_9,1,0.28912510024383664
10,23,1,left_cong,1,cong,num_7,num_7,1,0.30164039973169565
10,24,1,left_cong,1,cong,num_7,num_7,1,0.40245659975335
10,25,0,right_cong,1,cong,num_9,num_9,1,0.41932430025190115
10,26,3,left_incg,0,incg,num_9,num_9,1,0.6399086001329124
10,27,3,left_incg,0,incg,num_9,num_9,1,0.3206725995987654
10,28,3,left_incg,0,incg,num_9,num_9,1,0.33346689958125353
10,29,3,left_incg,0,incg,num_9,num_9,1,0.34210210014134645
10,30,3,left_incg,0,incg,num_9,num_9,1,0.4644586998037994
10,31,2,right_incg,0,incg,num_7,num_7,1,0.5367478998377919
10,32,3,left_incg,0,incg,num_9,num_9,1,0.439661200158298
10,33,2,right_incg,0,incg,num_7,num_7,1,0.37508520018309355
10,34,3,left_incg,0,incg,num_9,num_9,1,0.3051048000343144
10,35,2,right_incg,0,incg,num_7,num_7,1,0.4347260999493301
10,36,3,left_incg,0,incg,num_9,num_9,1,0.4487645998597145
10,37,3,left_incg,0,incg,num_9,num_9,1,0.3320953999646008
10,38,2,right_incg,0,incg,num_7,num_7,1,0.4546136003918946
10,39,2,right_incg,0,incg,num_7,num_7,1,0.3239080002531409
10,40,2,right_incg,0,incg,num_7,num_7,1,0.31382020004093647
10,41,1,left_cong,1,cong,num_7,num_9,0,0.4792463998310268
10,42,0,right_cong,1,cong,num_9,num_9,1,0.3759313002228737
10,43,1,left_cong,1,cong,num_7,num_7,1,0.4084827001206577
10,44,0,right_cong,1,cong,num_9,num_9,1,0.36915359972044826
10,45,1,left_cong,1,cong,num_7,num_7,1,0.3274787999689579
10,46,0,right_cong,1,cong,num_9,num_9,1,0.5449357000179589
10,47,1,left_cong,1,cong,num_7,num_7,1,0.36176189966499805
10,48,1,left_cong,1,cong,num_7,num_7,1,0.3772577000781894
10,49,1,left_cong,1,cong,num_7,num_7,1,0.41488599963486195
10,50,1,left_cong,1,cong,num_7,num_7,1,0.35087630013003945
10,51,1,left_cong,1,cong,num_7,num_7,1,0.49352140026167035
10,52,1,left_cong,1,cong,num_7,num_7,1,0.35669959988445044
10,53,0,right_cong,1,cong,num_9,num_9,1,0.5074557000771165
10,54,1,left_cong,1,cong,num_7,num_7,1,0.35496990010142326
10,55,1,left_cong,1,cong,num_7,num_7,1,0.3445919998921454
10,56,0,right_cong,1,cong,num_9,num_9,1,0.3799875997938216
10,57,1,left_cong,1,cong,num_7,num_7,1,0.3363708001561463
10,58,0,right_cong,1,cong,num_9,num_9,1,0.3163444004021585
10,59,0,right_cong,1,cong,num_9,num_9,1,0.41577159985899925
10,60,0,right_cong,1,cong,num_9,num_9,1,0.33711940003558993
10,61,3,left_incg,0,incg,num_9,num_9,1,0.4416557000949979
10,62,3,left_incg,0,incg,num_9,num_9,1,0.4202101998962462
10,63,3,left_incg,0,incg,num_9,num_9,1,0.35441929986700416
10,64,2,right_incg,0,incg,num_7,num_7,1,0.4588133003562689
10,65,3,left_incg,0,incg,num_9,num_9,1,0.3990408000536263
10,66,1,left_cong,1,cong,num_7,num_7,1,0.41558329993858933
10,67,1,left_cong,1,cong,num_7,num_7,1,0.3783071003854275
10,68,1,left_cong,1,cong,num_7,num_7,1,0.3011077996343374
10,69,1,left_cong,1,cong,num_7,num_7,1,0.32770010037347674
10,70,0,right_cong,1,cong,num_9,num_9,1,0.5567952003329992
10,71,0,right_cong,1,cong,num_9,num_9,1,0.5645455997437239
10,72,0,right_cong,1,cong,num_9,num_9,1,0.3440584000200033
10,73,1,left_cong,1,cong,num_7,num_7,1,0.354016300290823
10,74,1,left_cong,1,cong,num_7,num_7,1,0.28179499972611666
10,75,0,right_cong,1,cong,num_9,num_9,1,0.36452639987692237
10,76,1,left_cong,1,cong,num_7,num_7,1,0.4437007997184992
10,77,0,right_cong,1,cong,num_9,num_9,1,0.3081256002187729
10,78,1,left_cong,1,cong,num_7,num_7,1,0.365408499725163
10,79,1,left_cong,1,cong,num_7,num_7,1,0.4334011999890208
10,80,1,left_cong,1,cong,num_7,num_7,1,0.4712673001922667
10,81,3,left_incg,0,incg,num_9,num_9,1,0.4815962999127805
10,82,3,left_incg,0,incg,num_9,num_9,1,0.47323139989748597
10,83,2,right_incg,0,incg,num_7,num_7,1,0.6083356998860836
10,84,3,left_incg,0,incg,num_9,num_9,1,0.39477060036733747
10,85,3,left_incg,0,incg,num_9,num_9,1,0.4590983996167779
10,86,1,left_cong,1,cong,num_7,num_7,1,0.4422289999201894
10,87,1,left_cong,1,cong,num_7,num_7,1,0.2874877997674048
10,88,1,left_cong,1,cong,num_7,num_7,1,0.3200551997870207
10,89,0,right_cong,1,cong,num_9,num_7,0,0.30240599997341633
10,90,0,right_cong,1,cong,num_9,num_9,1,0.5002505998127162
10,91,2,right_incg,0,incg,num_7,num_7,1,0.5623838999308646
10,92,3,left_incg,0,incg,num_9,num_9,1,0.3905254998244345
10,93,3,left_incg,0,incg,num_9,num_9,1,0.4833193002268672
10,94,2,right_incg,0,incg,num_7,num_7,1,0.39822719991207123
10,95,3,left_incg,0,incg,num_9,num_9,1,0.40517139993608
10,96,2,right_incg,0,incg,num_7,num_7,1,0.41770510002970695
10,97,2,right_incg,0,incg,num_7,num_7,1,0.4512453000061214
10,98,3,left_incg,0,incg,num_9,num_9,1,0.444819999858737
10,99,2,right_incg,0,incg,num_7,num_7,1,0.34863940021023154
10,100,2,right_incg,0,incg,num_7,num_7,1,0.5626640999689698
